# elapsed time, f1_acc_x, f1_acc_y, f1_acc_z, f1_gyro_x, f1_gyro_y, f1_gyro_z
3.219277691841125488e+01,2.729389905929564986e+00,-5.834669589996337891e+00,-8.597578048706054688e+00,-3.356933593750000000e+00,-1.678466796875000000e-01,3.890991210937500000e-01
3.221002888679504395e+01,2.736572504043579102e+00,-5.834669589996337891e+00,-8.564059257507324219e+00,-3.356933593750000000e+00,-2.288818359375000000e-01,3.890991210937500000e-01
3.222216010093688965e+01,2.736572504043579102e+00,-5.796362400054932529e+00,-8.530540466308593750e+00,-3.356933593750000000e+00,-1.983642578125000000e-01,3.128051757812500000e-01
3.223498702049255371e+01,2.736572504043579102e+00,-5.796362400054932529e+00,-8.523358345031736505e+00,-3.379821777343750000e+00,-1.983642578125000000e-01,4.501342773437500000e-01
3.225012946128845215e+01,2.782062292098999023e+00,-5.815515995025634766e+00,-8.523358345031736505e+00,-3.456115722656250000e+00,-1.983642578125000000e-01,4.501342773437500000e-01
3.226094317436218262e+01,2.782062292098999023e+00,-5.839457988739013672e+00,-8.530540466308593750e+00,-3.471374511718750000e+00,-2.822875976562500000e-01,5.340576171875000000e-01
3.227637505531311035e+01,2.729389905929564986e+00,-5.839457988739013672e+00,-8.549694061279298651e+00,-3.456115722656250000e+00,-2.822875976562500000e-01,5.340576171875000000e-01
3.228836083412170410e+01,2.729389905929564986e+00,-5.820304393768311435e+00,-8.676587104797361505e+00,-3.471374511718750000e+00,-1.754760742187500000e-01,5.340576171875000000e-01
3.230384612083435059e+01,2.736572504043579102e+00,-5.820304393768311435e+00,-8.549694061279298651e+00,-3.517150878906250000e+00,-1.754760742187500000e-01,4.425048828125000000e-01
3.231888103485107422e+01,2.741360902786254883e+00,-5.834669589996337891e+00,-8.501810073852539062e+00,-3.593444824218750000e+00,-2.136230468750000000e-01,5.340576171875000000e-01
3.233000087738037109e+01,2.741360902786254883e+00,-5.834669589996337891e+00,-8.501810073852539062e+00,-3.593444824218750000e+00,-4.196166992187500000e-01,5.493164062500000000e-01
3.234512209892272949e+01,2.777273893356323242e+00,-5.844246387481689453e+00,-8.516175270080566406e+00,-3.532409667968750000e+00,-4.196166992187500000e-01,5.493164062500000000e-01
3.235726523399353027e+01,2.794033288955688477e+00,-5.844246387481689453e+00,-8.583212852478027344e+00,-3.318786621093750000e+00,-2.059936523437500000e-01,4.730224609375000000e-01
3.237252354621887207e+01,2.794033288955688477e+00,-5.844246387481689453e+00,-8.583212852478027344e+00,-3.318786621093750000e+00,-2.059936523437500000e-01,4.730224609375000000e-01
3.238460111618041992e+01,2.734178304672240767e+00,-5.851428985595702237e+00,-8.559270858764646661e+00,-3.540039062500000000e+00,-2.593994140625000000e-01,4.730224609375000000e-01
3.239992690086364746e+01,2.734178304672240767e+00,-5.825092792510986328e+00,-8.559270858764646661e+00,-3.540039062500000000e+00,-2.593994140625000000e-01,5.416870117187500000e-01
3.241416692733764648e+01,2.734178304672240767e+00,-5.829881191253662109e+00,-8.559270858764646661e+00,-3.555297851562500000e+00,-2.441406250000000000e-01,3.738403320312500000e-01
3.242676448822021484e+01,2.772485494613647461e+00,-5.829881191253662109e+00,-8.607154846191406250e+00,-3.509521484375000000e+00,-2.288818359375000000e-01,4.043579101562500000e-01
3.244195961952209473e+01,2.772485494613647461e+00,-5.837063789367675781e+00,-8.614337921142576349e+00,-3.501892089843750000e+00,-2.288818359375000000e-01,4.043579101562500000e-01
3.245317578315734863e+01,2.760514497756958008e+00,-5.837063789367675781e+00,-8.614337921142576349e+00,-3.501892089843750000e+00,-4.043579101562500000e-01,4.043579101562500000e-01
3.246814179420471191e+01,2.717418909072875977e+00,-5.834669589996337891e+00,-8.681375503540039062e+00,-3.494262695312500000e+00,-4.043579101562500000e-01,4.730224609375000000e-01
3.248384642601013184e+01,2.717418909072875977e+00,-5.820304393768311435e+00,-8.599972724914549005e+00,-3.578186035156250000e+00,-4.577636718750000000e-01,6.256103515625000000e-01
3.249567961692810059e+01,2.722207307815552202e+00,-5.820304393768311435e+00,-8.599972724914549005e+00,-3.494262695312500000e+00,-1.678466796875000000e-01,6.256103515625000000e-01
3.251007413864135742e+01,2.760514497756958008e+00,-5.820304393768311435e+00,-8.595184326171875000e+00,-3.494262695312500000e+00,-4.425048828125000000e-01,6.103515625000000000e-01
3.252308678627014160e+01,2.794033288955688477e+00,-5.820304393768311435e+00,-8.578424453735353339e+00,-3.463745117187500000e+00,-1.678466796875000000e-01,6.103515625000000000e-01
3.253705525398254395e+01,2.760514497756958008e+00,-5.805939197540282315e+00,-8.549694061279298651e+00,-3.486633300781250000e+00,-1.678466796875000000e-01,6.103515625000000000e-01
3.254989576339721680e+01,2.712630510330200195e+00,-5.805939197540282315e+00,-8.549694061279298651e+00,-3.486633300781250000e+00,-1.678466796875000000e-01,6.179809570312500000e-01
3.267805743217468262e+01,2.703053712844848633e+00,-5.784391403198242188e+00,-8.549694061279298651e+00,-3.570556640625000000e+00,-4.806518554687500000e-01,6.179809570312500000e-01
3.269128727912902832e+01,2.703053712844848633e+00,-5.844246387481689453e+00,-8.578424453735353339e+00,-5.920410156250000000e+00,-4.806518554687500000e-01,2.075195312500000000e+00
3.270491600036621094e+01,3.344699621200561079e+00,-5.566518783569335938e+00,-8.130708694458007812e+00,-5.920410156250000000e+00,1.052856445312500000e+00,2.075195312500000000e+00
3.271720886230468750e+01,3.344699621200561079e+00,-5.331887245178222656e+00,-8.611943244934082031e+00,-2.128601074218750000e+00,1.052856445312500000e+00,2.395629882812500000e+00
3.273246979713439941e+01,2.221819162368774414e+00,-5.331887245178222656e+00,-8.475473403930664062e+00,2.716064453125000000e+00,-2.822875976562500000e+00,3.471374511718750000e+00
3.274688529968261719e+01,2.221819162368774414e+00,-5.681440353393554688e+00,-8.611943244934082031e+00,2.929687500000000000e+00,-2.822875976562500000e+00,3.471374511718750000e+00
3.275969052314758301e+01,3.050212860107421875e+00,-6.165069103240967685e+00,-8.719682693481445312e+00,2.929687500000000000e+00,-4.112243652343750000e+00,5.920410156250000000e+00
3.277487635612487793e+01,3.050212860107421875e+00,-5.765237808227539062e+00,-8.719682693481445312e+00,2.929687500000000000e+00,2.159118652343750000e+00,-5.722045898437500000e-01
3.278890180587768555e+01,3.402160644531250000e+00,-6.464344501495361328e+00,-1.001494598388672053e+01,6.332397460937500000e-01,-4.112243652343750000e+00,6.500244140625000000e+00
3.280193924903869629e+01,1.699883222579956055e+00,-7.105990409851074219e+00,-7.996633529663085938e+00,2.711486816406250000e+01,-4.081726074218750000e+00,-5.722045898437500000e-01
3.281386542320251465e+01,3.179499864578247070e+00,-7.105990409851074219e+00,-1.355836391448974432e+01,6.224822998046875000e+01,-4.081726074218750000e+00,-3.662109375000000000e+00
3.283091688156127930e+01,1.515529632568359375e+00,-7.105990409851074219e+00,-1.392228221893310547e+01,6.834411621093750000e+01,-3.898620605468750000e+00,-5.142211914062500000e+00
3.284737491607666016e+01,1.711854219436645508e+00,-7.110778808593750000e+00,-1.458787059783935547e+01,1.258850097656250000e+02,3.036499023437500000e+00,-1.146697998046875000e+01
3.285855698585510254e+01,1.513135433197021706e+00,-7.110778808593750000e+00,-1.458787059783935547e+01,1.795959472656250000e+02,8.316040039062500000e+00,-1.869201660156250000e+01
3.287291240692138672e+01,1.711854219436645508e+00,-5.971138954162597656e+00,-8.212111473083496094e+00,2.080688476562500000e+02,8.316040039062500000e+00,-1.869201660156250000e+01
3.288416695594787598e+01,2.178723573684692383e+00,-5.971138954162597656e+00,-4.979939460754394531e+00,2.080688476562500000e+02,3.593444824218750000e+00,-1.662445068359375000e+01
3.289807343482971191e+01,4.338293552398681641e+00,-6.052541732788085938e+00,-4.979939460754394531e+00,1.668395996093750000e+02,3.395080566406250000e+00,-1.662445068359375000e+01
3.291192889213562012e+01,3.052607059478760210e+00,-6.617573261260986328e+00,-5.750872611999512607e+00,1.614913940429687500e+02,9.078979492187500000e-01,-1.071166992187500000e+01
3.292502832412719727e+01,3.052607059478760210e+00,-7.084442615509032315e+00,-5.750872611999512607e+00,1.614913940429687500e+02,-5.340576171875000000e-01,-1.437377929687500000e+01
3.293703746795654297e+01,3.052607059478760210e+00,-7.501033782958983487e+00,-6.533776283264160156e+00,1.570892333984375000e+02,-5.340576171875000000e-01,-1.437377929687500000e+01
3.295168876647949219e+01,1.900996088981628418e+00,-8.805873870849609375e+00,-6.636726856231689453e+00,1.760253906250000000e+02,-2.899169921875000000e-01,-1.437377929687500000e+01
3.296398305892944336e+01,2.806004285812377930e+00,-8.805873870849609375e+00,-7.855375766754150391e+00,1.801147460937500000e+02,3.349304199218750000e+00,-1.737213134765625000e+01
3.297921085357666016e+01,2.806004285812377930e+00,-8.075642585754394531e+00,-7.855375766754150391e+00,2.159652709960937216e+02,1.861572265625000000e+00,-1.239776611328125000e+01
3.299351096153259277e+01,2.806004285812377930e+00,-8.018181800842285156e+00,-4.886565685272216797e+00,2.199325561523437216e+02,2.708435058593750000e+00,-2.215576171875000000e+01
3.300546979904174805e+01,3.780444383621216264e+00,-7.450755596160888672e+00,-4.738124847412108487e+00,2.199325561523437216e+02,2.708435058593750000e+00,-2.215576171875000000e+01
3.302060270309448242e+01,2.990357875823974609e+00,-7.450755596160888672e+00,-3.007117271423339844e+00,2.134170532226562500e+02,2.708435058593750000e+00,-2.215576171875000000e+01
3.303209304809570312e+01,3.086125850677490234e+00,-7.891288757324218750e+00,-3.007117271423339844e+00,2.130203247070312500e+02,3.616333007812500000e+00,-2.501678466796875000e+01
3.304814887046813965e+01,3.086125850677490234e+00,-7.927201747894287109e+00,-3.751713991165161133e+00,2.130203247070312500e+02,1.091003417968750000e+00,-1.314544677734375000e+01
3.306275272369384766e+01,3.732560396194458008e+00,-9.042900085449220526e+00,-4.048594951629638672e+00,2.158584594726562500e+02,-2.262878417968750000e+01,2.723693847656250000e+00
3.307517266273498535e+01,3.732560396194458008e+00,-9.042900085449220526e+00,-4.048594951629638672e+00,2.309036254882812500e+02,-2.262878417968750000e+01,2.723693847656250000e+00
3.309003567695617676e+01,3.732560396194458008e+00,-8.401253700256347656e+00,1.233013868331909180e+00,2.309036254882812500e+02,1.156616210937500000e+01,-4.006958007812500000e+01
3.310111141204833984e+01,6.904877662658691406e+00,-8.109161376953125000e+00,3.201047658920288086e+00,2.065811157226562500e+02,1.473236083984375000e+01,-4.006958007812500000e+01
3.311630797386169434e+01,6.904877662658691406e+00,-8.401253700256347656e+00,2.444479942321777344e+00,2.038803100585937216e+02,1.473236083984375000e+01,-7.553100585937500000e+00
3.312886095046997070e+01,3.253720045089721680e+00,-8.413224220275878906e+00,2.444479942321777344e+00,1.767425537109375000e+02,-3.410339355468750000e+00,-7.553100585937500000e+00
3.314297771453857422e+01,2.559401512145996094e+00,-9.193734169006347656e+00,-6.631938815116882324e-01,1.767425537109375000e+02,-3.410339355468750000e+00,-1.792907714843750000e+01
3.315498518943786621e+01,2.559401512145996094e+00,-9.193734169006347656e+00,-7.086836695671081543e-01,1.772384643554687500e+02,6.576538085937500000e+00,-2.077484130859375000e+01
3.317044687271118164e+01,2.559401512145996094e+00,-9.193734169006347656e+00,-7.086836695671081543e-01,2.032318115234375000e+02,6.576538085937500000e+00,-2.077484130859375000e+01
3.318566775321960449e+01,2.262520551681518555e+00,-7.453149795532227451e+00,1.467645645141601562e+00,2.032318115234375000e+02,-3.063201904296875000e+01,3.551483154296875000e+01
3.319725823402404785e+01,1.412578940391540305e+00,-7.453149795532227451e+00,1.467645645141601562e+00,2.117767333984375000e+02,-3.063201904296875000e+01,3.551483154296875000e+01
3.321203017234802246e+01,1.412578940391540305e+00,-7.299921035766602451e+00,1.115697979927062988e+00,2.117767333984375000e+02,8.895874023437500000e+00,-4.098510742187500000e+01
3.322487425804138184e+01,3.706224203109741211e+00,-7.299921035766602451e+00,1.115697979927062988e+00,2.419052124023437216e+02,8.895874023437500000e+00,-4.098510742187500000e+01
3.324017906188964844e+01,8.540117263793945312e+00,-4.632780075073242188e+00,6.430825710296630859e+00,2.419052124023437216e+02,-4.035949707031250000e+00,-1.349639892578125000e+01
3.325489687919616699e+01,6.471527099609375000e+00,-4.632780075073242188e+00,6.430825710296630859e+00,4.574584960937500000e+01,-4.035949707031250000e+00,-1.257324218750000000e+01
3.326599383354187012e+01,6.471527099609375000e+00,-6.998251438140869141e+00,1.236844539642333984e+01,4.574584960937500000e+01,-8.224487304687500000e+00,1.612091064453125000e+01
3.328192758560180664e+01,6.471527099609375000e+00,-8.456319808959960938e+00,-1.165976166725158691e+00,8.201599121093750000e+01,7.408142089843750000e+00,-2.136230468750000000e+00
3.329578876495361328e+01,1.132457375526428223e+00,-8.243236541748048651e+00,4.299986362457274502e+00,1.119079589843750000e+02,7.408142089843750000e+00,-2.136230468750000000e+00
3.330904436111450195e+01,4.259284973144531250e+00,-8.243236541748048651e+00,4.299986362457274502e+00,1.082305908203125000e+02,7.408142089843750000e+00,-2.136230468750000000e+00
3.332323479652404785e+01,3.900154590606689453e+00,-6.787561893463134766e+00,6.117185115814208984e+00,1.082305908203125000e+02,3.082275390625000000e+00,-1.991271972656250000e+00
3.333779883384704590e+01,3.900154590606689453e+00,-6.787561893463134766e+00,6.117185115814208984e+00,1.033401489257812358e+02,3.044128417968750000e+00,-1.991271972656250000e+00
3.335097932815551758e+01,3.900154590606689453e+00,-7.103596210479736328e+00,5.219359397888183594e+00,1.009216308593750000e+02,3.044128417968750000e+00,-5.706787109375000000e+00
3.336497879028320312e+01,3.220201253890991211e+00,-7.299921035766602451e+00,5.219359397888183594e+00,1.009216308593750000e+02,1.838684082031250000e+00,-5.706787109375000000e+00
3.337987256050109863e+01,3.825934171676636186e+00,-7.299921035766602451e+00,5.856217384338378906e+00,1.009216308593750000e+02,-1.441955566406250000e+00,-4.081726074218750000e+00
3.339205384254455566e+01,3.825934171676636186e+00,-6.071695327758789062e+00,7.058106422424316406e+00,7.674407958984375000e+01,-1.441955566406250000e+00,-1.670837402343750000e+00
3.340472483634948730e+01,3.825934171676636186e+00,-6.071695327758789062e+00,7.058106422424316406e+00,2.807617187500000000e+01,-7.934570312500000000e-01,2.059936523437500000e-01
3.342176699638366699e+01,3.892971992492676225e+00,-6.430825710296630859e+00,6.591237068176269531e+00,9.597778320312500000e+00,-7.934570312500000000e-01,3.890991210937500000e-01
3.343235373497009277e+01,3.653551816940308061e+00,-6.679822444915772373e+00,5.942408561706542969e+00,3.410339355468750000e+00,-1.678466796875000000e-01,3.738403320312500000e-01
3.344664931297302246e+01,3.892971992492676225e+00,-6.679822444915772373e+00,5.942408561706542969e+00,2.693176269531250000e+00,-6.942749023437500000e-01,8.163452148437500000e-01
3.346388053894042969e+01,3.878606796264647993e+00,-6.358999729156494141e+00,6.306327342987060547e+00,2.693176269531250000e+00,-1.678466796875000000e-01,4.272460937500000000e-01
3.347544193267822266e+01,3.912125587463378906e+00,-6.358999729156494141e+00,6.306327342987060547e+00,-1.472473144531250000e+00,-6.027221679687500000e-01,8.163452148437500000e-01
3.349037146568298340e+01,3.950432777404785156e+00,-6.502651691436767578e+00,5.861005783081054688e+00,-1.472473144531250000e+00,-2.288818359375000000e-01,1.380920410156250000e+00
3.350220346450805664e+01,3.950432777404785156e+00,-6.502651691436767578e+00,5.861005783081054688e+00,-9.460449218750000000e-01,-2.288818359375000000e-01,1.380920410156250000e+00
3.351504778861999512e+01,3.790021181106567827e+00,-6.294356346130371094e+00,6.040570735931396484e+00,-9.460449218750000000e-01,-2.288818359375000000e-01,1.327514648437500000e+00
3.353031778335571289e+01,3.790021181106567827e+00,-6.294356346130371094e+00,6.052541732788085938e+00,-1.716613769531250000e+00,-5.874633789062500000e-01,9.231567382812500000e-01
3.354230713844299316e+01,3.701435804367065430e+00,-6.409277915954589844e+00,6.052541732788085938e+00,-1.899719238281250000e+00,-5.874633789062500000e-01,9.231567382812500000e-01
3.355808329582214355e+01,3.895366191864013672e+00,-6.409277915954589844e+00,6.052541732788085938e+00,-1.899719238281250000e+00,-2.822875976562500000e-01,9.231567382812500000e-01
3.356996369361877441e+01,3.746925592422484907e+00,-6.347028732299804688e+00,6.157886505126952237e+00,-1.899719238281250000e+00,-1.602172851562500000e-01,1.075744628906250000e+00
3.358454370498657227e+01,3.773261785507201704e+00,-6.256049156188964844e+00,6.157886505126952237e+00,-2.891540527343750000e+00,-1.373291015625000000e-01,1.190185546875000000e+00
3.359693646430969238e+01,3.746925592422484907e+00,-6.256049156188964844e+00,6.110002517700195312e+00,-3.143310546875000000e+00,-1.449584960937500000e-01,1.091003417968750000e+00
3.361133670806884766e+01,3.773261785507201704e+00,-6.390124320983887607e+00,6.093243122100830078e+00,-3.143310546875000000e+00,-1.373291015625000000e-01,1.091003417968750000e+00
3.362319183349609375e+01,3.804386377334594282e+00,-6.390124320983887607e+00,6.093243122100830078e+00,-2.113342285156250000e+00,-1.449584960937500000e-01,6.027221679687500000e-01
3.363884186744689941e+01,3.804386377334594282e+00,-6.320692539215087891e+00,6.107608318328857422e+00,-2.113342285156250000e+00,-4.196166992187500000e-01,5.874633789062500000e-01
3.365082502365112305e+01,3.933673381805419922e+00,-6.320692539215087891e+00,6.172251701354980469e+00,-2.937316894531250000e+00,-4.196166992187500000e-01,5.874633789062500000e-01
3.366498994827270508e+01,3.955221176147461382e+00,-6.375759124755858487e+00,6.136338710784912109e+00,-2.937316894531250000e+00,-3.128051757812500000e-01,1.029968261718750000e+00
3.368061709403991699e+01,3.933673381805419922e+00,-6.375759124755858487e+00,6.136338710784912109e+00,-2.937316894531250000e+00,-1.907348632812500000e-01,1.495361328125000000e+00
3.369184327125549316e+01,3.770867586135863814e+00,-6.375759124755858487e+00,6.136338710784912109e+00,-3.265380859375000000e+00,-1.907348632812500000e-01,1.495361328125000000e+00
3.370775175094604492e+01,3.746925592422484907e+00,-6.426037311553955078e+00,6.141127109527587891e+00,-3.372192382812500000e+00,-2.441406250000000000e-01,1.296997070312500000e+00
3.371942687034606934e+01,3.770867586135863814e+00,-6.469132900238037109e+00,6.141127109527587891e+00,-3.372192382812500000e+00,-4.730224609375000000e-01,8.087158203125000000e-01
3.373477077484130859e+01,3.773261785507201704e+00,-6.469132900238037109e+00,6.141127109527587891e+00,-2.929687500000000000e+00,-4.730224609375000000e-01,6.942749023437500000e-01
3.374671888351440430e+01,3.775655984878540039e+00,-6.399701118469237393e+00,6.121973514556884766e+00,-2.929687500000000000e+00,-2.288818359375000000e-01,8.087158203125000000e-01
3.376121520996093750e+01,3.840299367904663086e+00,-6.397306919097900391e+00,6.193799495697021484e+00,-3.143310546875000000e+00,-2.288818359375000000e-01,6.942749023437500000e-01
3.377355098724365234e+01,3.878606796264647993e+00,-6.399701118469237393e+00,6.141127109527587891e+00,-3.143310546875000000e+00,-1.831054687500000000e-01,9.384155273437500000e-01
3.378917384147644043e+01,3.878606796264647993e+00,-6.397306919097900391e+00,6.141127109527587891e+00,-3.143310546875000000e+00,-2.365112304687500000e-01,8.468627929687500000e-01
3.380387353897094727e+01,3.761290788650512695e+00,-6.430825710296630859e+00,6.141127109527587891e+00,-3.173828125000000000e+00,-2.365112304687500000e-01,1.007080078125000000e+00
3.381567049026489258e+01,3.761290788650512695e+00,-6.421248912811278409e+00,6.069301128387451172e+00,-3.372192382812500000e+00,-2.365112304687500000e-01,8.468627929687500000e-01
3.383069014549255371e+01,3.799597978591918945e+00,-6.421248912811278409e+00,6.062118530273437500e+00,-3.372192382812500000e+00,-3.738403320312500000e-01,7.858276367187500000e-01
3.384276819229125977e+01,3.799597978591918945e+00,-6.370970726013183594e+00,6.062118530273437500e+00,-3.211975097656250000e+00,-2.365112304687500000e-01,7.171630859375000000e-01
3.385778498649597168e+01,3.821145772933959961e+00,-6.351817131042480469e+00,6.141127109527587891e+00,-3.211975097656250000e+00,-3.738403320312500000e-01,7.858276367187500000e-01
3.386967277526855469e+01,3.837905168533325195e+00,-6.351817131042480469e+00,6.141127109527587891e+00,-3.501892089843750000e+00,-2.365112304687500000e-01,5.340576171875000000e-01
3.388685154914855957e+01,3.840299367904663086e+00,-6.351817131042480469e+00,6.107608318328857422e+00,-3.547668457031250000e+00,-4.043579101562500000e-01,8.392333984375000000e-01
3.389746546745300293e+01,3.840299367904663086e+00,-6.337451934814452237e+00,6.069301128387451172e+00,-3.547668457031250000e+00,-3.356933593750000000e-01,9.460449218750000000e-01
3.391174435615539551e+01,3.828328371047973633e+00,-6.337451934814452237e+00,6.059724330902099609e+00,-3.509521484375000000e+00,-3.356933593750000000e-01,9.536743164062500000e-01
3.392579889297485352e+01,3.811568975448607954e+00,-6.392518520355224609e+00,6.045359134674072266e+00,-3.471374511718750000e+00,-3.051757812500000000e-01,9.460449218750000000e-01
3.393895983695983887e+01,3.799597978591918945e+00,-6.447585105895996094e+00,6.045359134674072266e+00,-3.395080566406250000e+00,-3.051757812500000000e-01,7.705688476562500000e-01
3.395103883743286133e+01,3.785232782363892046e+00,-6.392518520355224609e+00,6.074089527130127841e+00,-3.341674804687500000e+00,-3.433227539062500000e-01,7.171630859375000000e-01
3.396782779693603516e+01,3.799597978591918945e+00,-6.387730121612548828e+00,6.112396717071532315e+00,-3.341674804687500000e+00,-3.433227539062500000e-01,7.171630859375000000e-01
3.398090577125549316e+01,3.799597978591918945e+00,-6.380547523498535156e+00,6.215347290039063388e+00,-3.341674804687500000e+00,-2.593994140625000000e-01,9.994506835937500000e-01
3.399280524253845215e+01,3.799597978591918945e+00,-6.373364925384521484e+00,6.215347290039063388e+00,-3.517150878906250000e+00,-2.136230468750000000e-01,1.022338867187500000e+00
3.400976729393005371e+01,3.775655984878540039e+00,-6.354211330413817471e+00,6.093243122100830078e+00,-3.517150878906250000e+00,-2.136230468750000000e-01,9.994506835937500000e-01
3.402055883407592773e+01,3.775655984878540039e+00,-6.354211330413817471e+00,6.066906929016112393e+00,-3.417968750000000000e+00,-2.136230468750000000e-01,8.697509765625000000e-01
