# elapsed time, f2_acc_x, f2_acc_y, f2_acc_z, f2_gyro_x, f2_gyro_y, f2_gyro_z
1.138158774375915527e+01,5.003881454467773438e-01,-7.790732383728027344e+00,6.007051944732666016e+00,4.119873046875000000e-01,-2.288818359375000000e-02,-7.629394531250000000e-02
1.139247465133666992e+01,4.836287498474121094e-01,-7.790732383728027344e+00,6.054935932159423828e+00,2.212524414062500000e-01,-2.288818359375000000e-02,-1.602172851562500000e-01
1.140828704833984375e+01,4.501098990440368097e-01,-7.821856975555419922e+00,5.928043365478515625e+00,1.068115234375000000e-01,-2.288818359375000000e-02,-3.814697265625000000e-01
1.142016935348510742e+01,4.620809257030487061e-01,-7.783549785614013672e+00,5.937620162963867188e+00,2.212524414062500000e-01,7.629394531250000000e-03,-3.814697265625000000e-01
1.143569970130920410e+01,4.285621047019957941e-01,-7.783549785614013672e+00,5.928043365478515625e+00,3.204345703125000000e-01,7.629394531250000000e-03,-4.272460937500000000e-01
1.144727134704589844e+01,4.620809257030487061e-01,-7.783549785614013672e+00,5.937620162963867188e+00,4.501342773437500000e-01,-3.509521484375000000e-01,-3.128051757812500000e-01
1.146237611770629883e+01,4.501098990440368097e-01,-7.814674377441406250e+00,5.942408561706542969e+00,4.730224609375000000e-01,-6.484985351562500000e-01,-2.059936523437500000e-01
1.147488522529602051e+01,4.932055473327636164e-01,-7.814674377441406250e+00,6.110002517700195312e+00,5.722045898437500000e-01,-6.484985351562500000e-01,-1.525878906250000000e-01
1.148928761482238770e+01,4.572925269603729248e-01,-7.814674377441406250e+00,6.110002517700195312e+00,5.722045898437500000e-01,-6.027221679687500000e-01,-1.602172851562500000e-01
1.150464010238647461e+01,4.572925269603729248e-01,-7.742848396301268643e+00,6.030993938446044922e+00,2.746582031250000000e-01,-1.983642578125000000e-01,-1.602172851562500000e-01
1.151689767837524414e+01,4.477156996726989746e-01,-7.836222171783447266e+00,6.030993938446044922e+00,2.212524414062500000e-01,2.975463867187500000e-01,-1.983642578125000000e-01
1.153114581108093262e+01,4.477156996726989746e-01,-7.752425193786621094e+00,6.047753334045410156e+00,2.670288085937500000e-01,2.975463867187500000e-01,-1.983642578125000000e-01
1.154267764091491699e+01,4.477156996726989746e-01,-7.795520782470703125e+00,6.047753334045410156e+00,2.670288085937500000e-01,-2.059936523437500000e-01,-2.288818359375000000e-01
1.156154155731201172e+01,4.501098990440368097e-01,-7.752425193786621094e+00,5.975927352905273438e+00,3.814697265625000000e-01,-3.509521484375000000e-01,5.340576171875000000e-02
1.157287025451660156e+01,4.381389021873474121e-01,-7.776367187500000000e+00,5.975927352905273438e+00,3.814697265625000000e-01,-2.059936523437500000e-01,-2.288818359375000000e-02
1.158450651168823242e+01,4.381389021873474121e-01,-7.776367187500000000e+00,5.975927352905273438e+00,3.814697265625000000e-01,-3.509521484375000000e-01,-2.288818359375000000e-02
1.160253667831420898e+01,4.381389021873474121e-01,-7.797914981842041016e+00,5.983109951019287109e+00,2.899169921875000000e-01,9.155273437500000000e-02,-1.754760742187500000e-01
1.161372566223144531e+01,4.189852774143218994e-01,-7.797914981842041016e+00,5.846640586853027344e+00,5.111694335937500000e-01,9.155273437500000000e-02,-4.959106445312500000e-01
1.162727546691894531e+01,4.836287498474121094e-01,-7.783549785614013672e+00,5.983109951019287109e+00,2.670288085937500000e-01,9.155273437500000000e-02,-3.128051757812500000e-01
1.164111661911010742e+01,4.788403213024138849e-01,-7.764396190643310547e+00,5.983109951019287109e+00,2.670288085937500000e-01,3.433227539062500000e-01,-3.128051757812500000e-01
1.165410184860229492e+01,4.788403213024138849e-01,-7.783549785614013672e+00,5.983109951019287109e+00,2.136230468750000000e-01,3.509521484375000000e-01,-3.128051757812500000e-01
1.166566634178161621e+01,4.333505034446715753e-01,-7.747636795043945312e+00,5.916072368621826172e+00,2.136230468750000000e-01,3.509521484375000000e-01,-6.332397460937500000e-01
1.168345260620117188e+01,3.878606557846068781e-01,-7.745242595672607422e+00,5.825092792510986328e+00,4.653930664062500000e-01,-1.373291015625000000e-01,-8.544921875000000000e-01
1.169430661201477051e+01,4.333505034446715753e-01,-7.651868343353270596e+00,5.815515995025634766e+00,5.416870117187500000e-01,-5.416870117187500000e-01,-8.544921875000000000e-01
1.170847558975219727e+01,5.386953949928283691e-01,-7.568071365356445312e+00,5.815515995025634766e+00,5.416870117187500000e-01,-1.373291015625000000e-01,-6.561279296875000000e-01
1.172558450698852539e+01,8.451532125473022461e-01,-7.541735172271727627e+00,5.932831764221191406e+00,5.722045898437500000e-01,-1.686096191406250000e+00,6.256103515625000000e-01
1.173616957664489746e+01,7.876923680305480957e-01,-7.350199222564697266e+00,5.932831764221191406e+00,1.640319824218750000e+00,-1.686096191406250000e+00,2.258300781250000000e+00
1.174980711936950684e+01,7.876923680305480957e-01,-7.350199222564697266e+00,5.932831764221191406e+00,1.640319824218750000e+00,-1.686096191406250000e+00,2.258300781250000000e+00
1.176447343826293945e+01,6.560112833976745605e-01,-7.350199222564697266e+00,6.189011096954345703e+00,1.640319824218750000e+00,-2.342224121093750000e+00,3.051757812500000000e-02
1.177671813964843750e+01,6.392518281936645508e-01,-7.900865554809570312e+00,6.189011096954345703e+00,-1.365661621093750000e+00,2.830505371093750000e+00,-3.974914550781250000e+00
1.178957080841064453e+01,-1.070208191871643066e+00,-8.015787124633789062e+00,6.121973514556884766e+00,4.425048828125000000e+00,-3.547668457031250000e+00,3.051757812500000000e-02
1.180391883850097656e+01,-1.070208191871643066e+00,-8.015787124633789062e+00,5.714959144592285156e+00,4.997253417968750000e+00,1.066589355468750000e+01,-1.234436035156250000e+01
1.181597661972045898e+01,-7.158662676811218262e-01,-7.582436561584472656e+00,5.714959144592285156e+00,4.997253417968750000e+00,-6.370544433593750000e+00,-3.044128417968750000e+00
1.183138203620910645e+01,2.298433631658554077e-01,-7.513004779815673828e+00,5.899312973022460938e+00,-1.907348632812500000e-01,-6.370544433593750000e+00,-3.044128417968750000e+00
1.184666514396667480e+01,2.298433631658554077e-01,-7.582436561584472656e+00,5.899312973022460938e+00,-9.384155273437500000e-01,-6.370544433593750000e+00,-2.929687500000000000e+00
1.185753345489501953e+01,2.154781520366667869e-01,-8.051700592041015625e+00,5.837063789367675781e+00,-1.907348632812500000e-01,-2.639770507812500000e+00,-2.929687500000000000e+00
1.187286853790283203e+01,2.154781520366667869e-01,-8.051700592041015625e+00,5.837063789367675781e+00,4.310607910156250000e+00,-5.798339843750000000e-01,-3.761291503906250000e+00
1.188478279113769531e+01,7.829039692878723145e-01,-7.625532150268554688e+00,5.947196960449218750e+00,4.310607910156250000e+00,1.121520996093750000e+00,-4.554748535156250000e+00
1.190018963813781738e+01,7.829039692878723145e-01,-7.599195957183837891e+00,6.071695327758789062e+00,2.120971679687500000e+00,1.121520996093750000e+00,-3.761291503906250000e+00
1.191193175315856934e+01,6.584054827690124512e-01,-7.577648162841796875e+00,6.071695327758789062e+00,1.449584960937500000e+00,1.121520996093750000e+00,-1.380920410156250000e+00
1.192725586891174316e+01,6.248866319656372070e-01,-7.496245384216308594e+00,5.992686748504638672e+00,1.197814941406250000e+00,1.457214355468750000e+00,-1.380920410156250000e+00
1.193954420089721680e+01,3.663128614425659180e-01,-7.496245384216308594e+00,5.904101371765136719e+00,4.348754882812500000e-01,-7.553100585937500000e-01,-1.380920410156250000e+00
1.195385313034057617e+01,3.663128614425659180e-01,-7.673416137695311612e+00,5.846640586853027344e+00,1.197814941406250000e+00,1.647949218750000000e+00,-1.396179199218750000e+00
1.196604132652282715e+01,5.171475410461425781e-01,-7.860164165496826172e+00,5.810727596282958984e+00,3.509521484375000000e+00,1.434326171875000000e+00,-8.392333984375000000e-01
1.198096561431884766e+01,5.961562395095825195e-01,-7.860164165496826172e+00,5.810727596282958984e+00,3.509521484375000000e+00,1.434326171875000000e+00,-1.007080078125000000e+00
1.199589228630065918e+01,5.961562395095825195e-01,-7.558494567871093750e+00,6.157886505126953125e+00,2.868652343750000000e+00,1.434326171875000000e+00,-1.007080078125000000e+00
1.200784301757812500e+01,6.129156351089477539e-01,-7.553706169128417969e+00,6.157886505126953125e+00,2.334594726562500000e+00,9.689331054687500000e-01,-2.014160156250000000e+00
1.202291488647460938e+01,6.129156351089477539e-01,-7.558494567871093750e+00,6.141127109527587891e+00,0.000000000000000000e+00,9.689331054687500000e-01,-2.014160156250000000e+00
1.203490471839904785e+01,6.129156351089477539e-01,-7.584830760955809659e+00,5.755661010742188388e+00,0.000000000000000000e+00,3.204345703125000000e-01,-4.425048828125000000e-01
1.204969549179077148e+01,4.932055473327636164e-01,-7.647079944610595703e+00,5.755661010742188388e+00,8.239746093750000000e-01,2.593994140625000000e-01,3.814697265625000000e-02
1.206288385391235352e+01,4.309563040733336847e-01,-7.584830760955809659e+00,5.949591159820556641e+00,8.239746093750000000e-01,2.593994140625000000e-01,-4.425048828125000000e-01
1.207686781883239746e+01,4.309563040733336847e-01,-7.647079944610595703e+00,5.949591159820556641e+00,8.239746093750000000e-01,5.416870117187500000e-01,1.602172851562500000e+00
1.208849811553955078e+01,7.565677165985107422e-01,-7.649474143981933594e+00,5.923254966735839844e+00,1.045227050781250000e+00,5.416870117187500000e-01,1.251220703125000000e+00
1.210460186004638672e+01,7.565677165985107422e-01,-7.752425193786621094e+00,5.803544998168945312e+00,4.409790039062500000e+00,-2.670288085937500000e+00,1.251220703125000000e+00
1.211813449859619141e+01,8.140285611152648926e-01,-7.649474143981933594e+00,5.803544998168945312e+00,5.828857421875000000e+00,-2.845764160156250000e+00,-4.043579101562500000e-01
1.213187694549560547e+01,8.140285611152648926e-01,-7.771578788757324219e+00,5.803544998168945312e+00,5.828857421875000000e+00,-3.158569335937500000e+00,-6.408691406250000000e-01
1.214679479598999023e+01,8.140285611152648926e-01,-7.936778545379638672e+00,6.244078159332275391e+00,3.540039062500000000e+00,-2.845764160156250000e+00,-4.043579101562500000e-01
1.215867781639099121e+01,-6.703764945268629594e-02,-7.936778545379638672e+00,5.753266811370849609e+00,3.540039062500000000e+00,-5.035400390625000000e-01,-1.083374023437500000e+00
1.217305922508239746e+01,-6.703764945268629594e-02,-7.836222171783447266e+00,6.244078159332275391e+00,7.759094238281250000e+00,-5.035400390625000000e-01,-3.280639648437500000e-01
1.218699455261230469e+01,5.554547905921936035e-01,-7.297526836395263672e+00,6.579266071319580078e+00,7.759094238281250000e+00,-5.035400390625000000e-01,-3.280639648437500000e-01
1.219970822334289551e+01,7.541735172271728516e-01,-7.297526836395263672e+00,6.579266071319580078e+00,2.815246582031250000e+00,-1.792907714843750000e+00,2.136230468750000000e+00
1.221306443214416504e+01,5.554547905921936035e-01,-7.836222171783447266e+00,6.445190906524658203e+00,4.806518554687500000e-01,-6.713867187500000000e-01,3.326416015625000000e+00
1.222952914237976074e+01,2.561795711517333984e-01,-7.970297336578369141e+00,5.695805549621582031e+00,1.449584960937500000e-01,-1.792907714843750000e+00,3.326416015625000000e+00
1.224276185035705566e+01,2.633621916174879937e-02,-7.970297336578369141e+00,5.695805549621582031e+00,4.806518554687500000e-01,-6.713867187500000000e-01,1.037597656250000000e+00
1.225362825393676758e+01,-3.112462162971489990e-02,-7.778761386871337891e+00,5.872976779937744141e+00,1.449584960937500000e-01,2.082824707031250000e+00,-2.319335937500000000e+00
1.227125430107116699e+01,-3.112462162971489990e-02,-7.666233539581298828e+00,5.872976779937744141e+00,-3.662109375000000000e-01,3.044128417968750000e+00,-1.235198974609375000e+01
1.228164172172546387e+01,9.528922438621519886e-01,-7.649474143981933594e+00,5.647921562194824219e+00,-3.662109375000000000e-01,3.044128417968750000e+00,-1.235198974609375000e+01
1.229639911651611328e+01,1.051054477691650391e+00,-7.457938194274902344e+00,5.647921562194824219e+00,-2.967834472656250000e+00,1.472473144531250000e+00,-3.837585449218750000e+00
1.231328392028808594e+01,1.051054477691650391e+00,-7.457938194274902344e+00,6.181828498840332031e+00,-7.118225097656250000e+00,1.472473144531250000e+00,-2.250671386718750000e+00
1.232321262359619141e+01,4.572925269603729248e-01,-7.484274387359619141e+00,6.181828498840332031e+00,-7.118225097656250000e+00,3.601074218750000000e+00,-1.846313476562500000e+00
1.233819031715393066e+01,4.572925269603729248e-01,-7.484274387359619141e+00,5.564124584197998047e+00,-2.548217773437500000e+00,3.860473632812500000e+00,-2.250671386718750000e+00
1.235224413871765137e+01,5.458779931068420410e-01,-7.548917770385742188e+00,5.564124584197998047e+00,-2.548217773437500000e+00,3.860473632812500000e+00,-1.846313476562500000e+00
1.236589169502258301e+01,9.002197980880737305e-01,-7.548917770385742188e+00,6.145915508270263672e+00,-2.258300781250000000e+00,3.181457519531250000e+00,-4.074096679687500000e+00
1.237752628326416016e+01,1.261744260787964089e+00,-8.099584579467773438e+00,6.145915508270263672e+00,-3.700256347656250000e+00,3.181457519531250000e+00,-4.074096679687500000e+00
1.239412188529968262e+01,9.457096457481384277e-01,-8.123526573181152344e+00,6.184222698211669922e+00,-3.868103027343750000e+00,6.233215332031250000e+00,-4.074096679687500000e+00
1.240717601776123047e+01,9.457096457481384277e-01,-8.099584579467773438e+00,5.762843608856201172e+00,-5.630493164062500000e+00,7.926940917968750000e+00,-3.517150878906250000e+00
1.241901731491088867e+01,2.370259612798689963e-01,-7.673416137695311612e+00,6.236895561218261719e+00,-1.023864746093750000e+01,8.277893066406250000e+00,-2.006530761718750000e+00
1.243474984169006348e+01,9.816227108240120625e-02,-7.673416137695311612e+00,5.506663799285888672e+00,-1.238250732421875000e+01,7.926940917968750000e+00,-2.006530761718750000e+00
1.244633412361145020e+01,2.370259612798689963e-01,-7.515398979187011719e+00,6.236895561218261719e+00,-1.238250732421875000e+01,-3.189086914062500000e+00,1.937866210937500000e+00
1.246056270599365234e+01,-2.801215946674346924e-01,-7.678204536437988281e+00,5.901707172393798828e+00,2.294921875000000000e+01,-3.189086914062500000e+00,2.777099609375000000e+00
1.247243952751159668e+01,-2.801215946674346924e-01,-8.257601737976074219e+00,5.901707172393798828e+00,2.294921875000000000e+01,-8.125305175781250000e+00,6.080627441406250000e+00
1.248764896392822266e+01,-2.801215946674346924e-01,-8.257601737976074219e+00,3.521870613098144531e+00,1.411437988281250000e+01,-6.912231445312500000e+00,2.777099609375000000e+00
1.250129055976867676e+01,-3.351882472634309940e-02,-8.192957878112792969e+00,3.483563423156738281e+00,1.411437988281250000e+01,-8.338928222656250000e+00,4.447937011718750000e+00
1.251531648635864258e+01,1.192312479019165039e+00,-7.953537940979003906e+00,3.521870613098144531e+00,2.545166015625000000e+01,-2.204132080078125000e+01,4.447937011718750000e+00
1.252969503402709961e+01,1.192312479019165039e+00,-8.192957878112792969e+00,3.483563423156738281e+00,5.300140380859375000e+01,-3.186035156250000000e+01,4.447937011718750000e+00
1.254209923744201660e+01,1.956062793731689231e+00,-7.472303390502929688e+00,5.612008571624755859e+00,2.057876586914062500e+02,-3.186035156250000000e+01,3.616333007812500000e+00
1.255890965461730957e+01,-3.926490843296051025e-01,-7.589619159698486328e+00,9.023746490478515625e+00,2.057876586914062500e+02,-3.186035156250000000e+01,-2.585601806640625000e+01
1.256951880455017090e+01,-3.926490843296051025e-01,-7.472303390502929688e+00,1.902911567687988281e+01,1.653747558593750000e+02,7.064819335937500000e+00,-3.152465820312500000e+01
1.258357095718383789e+01,-6.634332656860351562e+00,-1.719036817550659180e+00,9.023746490478515625e+00,7.522583007812500000e+01,3.525543212890625000e+01,-3.152465820312500000e+01
1.259551548957824707e+01,-6.634332656860351562e+00,-1.719036817550659180e+00,1.713290786743164062e+01,2.800750732421875000e+01,6.140136718750000000e+01,-4.401397705078125000e+01
1.261187362670898438e+01,-1.446097850799560325e+00,-3.907337188720703125e+00,7.029376029968261719e+00,-3.160095214843750000e+01,3.525543212890625000e+01,-2.457427978515625000e+01
1.262273168563842773e+01,3.263296842575072798e+00,-9.435548782348632812e+00,2.487575531005859819e+00,-3.160095214843750000e+01,2.149200439453125000e+01,-1.380920410156250000e+00
1.263804769515991211e+01,6.320692300796508789e-01,-9.435548782348632812e+00,2.487575531005859819e+00,-7.118225097656250000e+00,-1.812744140625000000e+01,1.007843017578125000e+01
1.265383672714233398e+01,6.320692300796508789e-01,-9.062053680419921875e+00,3.208230257034301758e+00,1.140594482421875000e+01,5.775451660156250000e+00,-1.380920410156250000e+00
1.266505360603332520e+01,3.830722719430919992e-02,-6.272808551788330078e+00,5.748478412628173828e+00,1.140594482421875000e+01,-1.255035400390625000e+01,-5.126953125000000000e+00
1.268091821670532227e+01,3.830722719430919992e-02,-4.699817657470703125e+00,8.228871345520019531e+00,5.485534667968750000e+00,5.775451660156250000e+00,-6.790161132812500000e+00
1.269254708290100098e+01,3.198653459548950195e+00,-4.699817657470703125e+00,8.228871345520019531e+00,-7.659912109375000000e+00,-1.255035400390625000e+01,-6.790161132812500000e+00
1.270748448371887207e+01,3.198653459548950195e+00,-6.856993675231933594e+00,7.261613845825195312e+00,-7.659912109375000000e+00,-1.085662841796875000e+01,1.474761962890625000e+01
1.271956443786621094e+01,-1.096544384956360085e+00,-7.201758384704589844e+00,7.184998989105224609e+00,-9.460449218750000000e-01,-1.085662841796875000e+01,1.474761962890625000e+01
1.273478913307189941e+01,-1.096544384956360085e+00,-7.201758384704589844e+00,7.184998989105224609e+00,2.540588378906250000e+00,-4.653930664062500000e+00,-9.216308593750000000e+00
1.274591064453125000e+01,9.624690413475035511e-01,-5.437232017517089844e+00,8.099584579467773438e+00,2.540588378906250000e+00,1.571655273437500000e+00,-9.216308593750000000e+00
1.276068973541259766e+01,1.467645645141601562e+00,-5.437232017517089844e+00,8.099584579467773438e+00,-2.388000488281250000e+00,-3.753662109375000000e+00,-4.432678222656250000e+00
1.277801561355590820e+01,1.467645645141601562e+00,-5.556941986083984375e+00,7.730876922607421875e+00,-6.034851074218750000e+00,-3.753662109375000000e+00,7.194519042968750000e+00
1.278831076622009277e+01,-4.309563040733336847e-01,-7.785943984985351562e+00,6.950367450714111328e+00,-6.034851074218750000e+00,-3.753662109375000000e+00,7.194519042968750000e+00
1.280345416069030762e+01,-4.309563040733336847e-01,-7.785943984985351562e+00,6.950367450714111328e+00,3.204345703125000000e+00,4.142761230468750000e+00,-9.750366210937500000e+00
1.281726694107055664e+01,2.209848165512084961e+00,-7.065289020538330078e+00,7.477091789245604581e+00,3.654479980468750000e+00,4.142761230468750000e+00,-9.750366210937500000e+00
1.283023047447204590e+01,2.209848165512084961e+00,-5.576095581054688388e+00,8.856151580810546875e+00,3.654479980468750000e+00,3.967285156250000000e-01,5.210876464843750000e+00
1.284510016441345215e+01,7.900865375995630435e-02,-5.576095581054688388e+00,8.856151580810546875e+00,-6.195068359375000000e+00,7.629394531250000000e-03,5.210876464843750000e+00
1.285943508148193359e+01,7.900865375995630435e-02,-7.314286231994628906e+00,7.029376029968261719e+00,-6.195068359375000000e+00,3.967285156250000000e-01,2.342224121093750000e+00
1.287157082557678223e+01,6.224924325942993164e-01,-7.314286231994628906e+00,6.758831501007080078e+00,2.288818359375000000e-01,2.212524414062500000e+00,-2.601623535156250000e+00
1.288416790962219238e+01,6.224924325942993164e-01,-7.019799232482910156e+00,6.758831501007080078e+00,5.439758300781250000e+00,2.212524414062500000e+00,-2.601623535156250000e+00
1.290176558494567871e+01,5.865793824195861816e-01,-5.681440353393554688e+00,8.013393402099609375e+00,5.439758300781250000e+00,2.098083496093750000e+00,-2.601623535156250000e+00
1.291340756416320801e+01,5.865793824195861816e-01,-5.681440353393554688e+00,8.013393402099609375e+00,-2.410888671875000000e+00,-8.773803710937500000e-01,9.078979492187500000e-01
1.292572474479675293e+01,9.600748419761657715e-01,-6.847416877746582031e+00,7.331045627593994141e+00,-2.410888671875000000e+00,-9.613037109375000000e-01,9.078979492187500000e-01
1.294363594055175781e+01,9.600748419761657715e-01,-7.302315235137939453e+00,6.919242858886718750e+00,-6.713867187500000000e-01,-9.613037109375000000e-01,9.078979492187500000e-01
1.295497155189514160e+01,3.711012601852416992e-01,-7.302315235137939453e+00,6.919242858886718750e+00,2.784729003906250000e+00,6.484985351562500000e-01,1.525878906250000000e-01
1.296885180473327637e+01,3.711012601852416992e-01,-6.088454723358154297e+00,8.061277389526367188e+00,2.784729003906250000e+00,1.136779785156250000e+00,-1.953125000000000000e+00
1.298545908927917480e+01,1.082179188728332297e+00,-6.088454723358154297e+00,8.061277389526367188e+00,-2.479553222656250000e+00,6.484985351562500000e-01,-1.953125000000000000e+00
1.299597787857055664e+01,1.082179188728332297e+00,-6.708552837371826172e+00,7.103596210479736328e+00,-2.479553222656250000e+00,-1.594543457031250000e+00,2.510070800781250000e+00
1.301008081436157227e+01,1.675941199064253928e-01,-7.278373241424559659e+00,6.969521045684815341e+00,-2.899169921875000000e-01,-1.594543457031250000e+00,2.510070800781250000e+00
1.302214336395263672e+01,1.675941199064253928e-01,-7.278373241424559659e+00,6.969521045684815341e+00,3.051757812500000000e+00,4.577636718750000000e-02,-1.281738281250000000e+00
1.303726053237915039e+01,5.243301391601562500e-01,-6.423643112182617188e+00,7.563282966613769531e+00,3.051757812500000000e+00,4.577636718750000000e-02,-1.281738281250000000e+00
1.304914736747741699e+01,1.070208191871643066e+00,-6.423643112182617188e+00,7.625532150268554688e+00,-8.697509765625000000e-01,-2.822875976562500000e-01,-8.010864257812500000e-01
1.306488990783691406e+01,1.070208191871643066e+00,-6.816292285919189453e+00,7.625532150268554688e+00,-1.663208007812500000e+00,-5.798339843750000000e-01,1.914978027343750000e+00
1.307915306091308594e+01,3.806780576705932062e-01,-7.144297599792480469e+00,7.204152584075927734e+00,-1.663208007812500000e+00,-2.822875976562500000e-01,1.914978027343750000e+00
1.309471917152404785e+01,3.806780576705932062e-01,-7.144297599792480469e+00,7.137115001678466797e+00,1.213073730468750000e+00,-4.501342773437500000e-01,-1.884460449218750000e+00
1.310661220550537109e+01,9.576806426048279919e-01,-6.758831501007080078e+00,7.204152584075927734e+00,2.380371093750000000e+00,2.593994140625000000e-01,-1.884460449218750000e+00
1.311822557449340820e+01,9.576806426048279919e-01,-6.203376293182373047e+00,7.649474143981933594e+00,2.380371093750000000e+00,6.866455078125000000e-02,-1.525878906250000000e-02
1.313362169265747070e+01,6.153098344802856445e-01,-6.203376293182373047e+00,7.649474143981933594e+00,-2.029418945312500000e+00,6.866455078125000000e-02,1.159667968750000000e+00
1.314512491226196289e+01,6.153098344802856445e-01,-6.907271862030029297e+00,7.290344238281250000e+00,-2.029418945312500000e+00,6.866455078125000000e-02,1.159667968750000000e+00
1.316037774085998535e+01,6.464344263076782227e-01,-6.907271862030029297e+00,7.290344238281250000e+00,5.722045898437500000e-01,-7.095336914062500000e-01,-2.136230468750000000e-01
1.317431712150573730e+01,6.464344263076782227e-01,-6.907271862030029297e+00,7.496245384216308594e+00,1.464843750000000000e+00,4.119873046875000000e-01,-5.264282226562500000e-01
1.318696260452270508e+01,8.044517636299133301e-01,-6.160280704498291016e+00,7.996633529663085938e+00,1.464843750000000000e+00,-2.517700195312500000e-01,-2.288818359375000000e-01
1.320167779922485352e+01,7.948749661445617676e-01,-6.160280704498291016e+00,7.996633529663085938e+00,-3.196716308593750000e+00,-2.517700195312500000e-01,-2.288818359375000000e-01
1.321458482742309570e+01,7.948749661445617676e-01,-6.701370239257812500e+00,7.161056995391845703e+00,-3.196716308593750000e+00,-3.433227539062500000e-01,1.098632812500000000e+00
1.322945213317871094e+01,4.118026793003082275e-01,-7.034164428710937500e+00,6.897695064544677734e+00,-6.103515625000000000e-01,-3.433227539062500000e-01,1.098632812500000000e+00
1.324116992950439453e+01,4.118026793003082275e-01,-7.034164428710937500e+00,6.897695064544677734e+00,3.646850585937500000e+00,5.874633789062500000e-01,-1.228332519531250000e+00
1.325650882720947266e+01,5.075707435607910156e-01,-6.361393928527832031e+00,7.565677165985107422e+00,3.646850585937500000e+00,5.874633789062500000e-01,-1.243591308593750000e+00
1.326820564270019531e+01,7.996633648872375488e-01,-6.361393928527832031e+00,7.565677165985107422e+00,1.449584960937500000e-01,2.517700195312500000e-01,-1.243591308593750000e+00
1.328369379043579102e+01,7.996633648872375488e-01,-6.859387874603272373e+00,7.453149795532226562e+00,-8.850097656250000000e-01,-7.324218750000000000e-01,1.525878906250000000e+00
1.329831981658935547e+01,3.998316824436187744e-01,-7.235277652740478516e+00,7.046135425567626953e+00,-8.850097656250000000e-01,-7.324218750000000000e-01,1.525878906250000000e+00
1.331008577346801758e+01,3.998316824436187744e-01,-7.235277652740478516e+00,7.046135425567626953e+00,2.182006835937500000e+00,5.035400390625000000e-01,-1.411437988281250000e+00
1.332556009292602539e+01,8.116343617439270020e-01,-6.734889507293701172e+00,7.314286231994628906e+00,2.182006835937500000e+00,5.035400390625000000e-01,-1.411437988281250000e+00
