# elapsed time, f1_acc_x, f1_acc_y, f1_acc_z, f1_gyro_x, f1_gyro_y, f1_gyro_z
5.288793325424194336e+00,-8.451532125473022461e-01,-9.976638793945312500e+00,-9.121908545494079590e-01,-3.837585449218750000e+00,-2.136230468750000000e-01,3.967285156250000000e-01
5.304249763488769531e+00,-8.379705548286437988e-01,-1.006282997131347656e+01,-9.241618514060974121e-01,-3.921508789062500000e+00,5.264282226562500000e-01,3.967285156250000000e-01
5.315441608428955078e+00,-7.709329128265380859e-01,-1.009395408630371271e+01,-1.007958889007568359e+00,-3.837585449218750000e+00,-3.128051757812500000e-01,5.187988281250000000e-01
5.330985784530639648e+00,-8.044517636299133301e-01,-1.006282997131347656e+01,-9.744400978088380016e-01,-3.921508789062500000e+00,2.059936523437500000e-01,5.187988281250000000e-01
5.342457771301269531e+00,-8.044517636299133301e-01,-9.950302124023437500e+00,-1.029506683349609375e+00,-3.471374511718750000e+00,-4.959106445312500000e-01,4.730224609375000000e-01
5.358259916305541992e+00,-8.044517636299133301e-01,-9.950302124023437500e+00,-9.864110946655272327e-01,-3.585815429687500000e+00,-4.959106445312500000e-01,4.730224609375000000e-01
5.372529506683349609e+00,-8.499416112899780273e-01,-1.000058078765869141e+01,-9.864110946655272327e-01,-3.585815429687500000e+00,-4.959106445312500000e-01,3.814697265625000000e-01
5.384637355804443359e+00,-8.307879567146301270e-01,-1.000058078765869141e+01,-9.864110946655272327e-01,-3.585815429687500000e+00,-3.051757812500000000e-01,6.027221679687500000e-01
5.400173425674438477e+00,-8.523358106613159180e-01,-9.967061042785644531e+00,-9.888052940368652344e-01,-3.814697265625000000e+00,-3.051757812500000000e-01,5.722045898437500000e-01
5.412562131881713867e+00,-8.307879567146301270e-01,-9.967061042785644531e+00,-9.888052940368652344e-01,-3.486633300781250000e+00,-8.316040039062500000e-01,6.027221679687500000e-01
5.427005290985107422e+00,-7.852981686592102051e-01,-9.967061042785644531e+00,-9.744400978088380016e-01,-3.486633300781250000e+00,-8.316040039062500000e-01,1.083374023437500000e+00
5.439307212829589844e+00,-7.852981686592102051e-01,-1.006761837005615234e+01,-9.624690413475035511e-01,-3.486633300781250000e+00,-9.078979492187500000e-01,1.083374023437500000e+00
5.453583002090454102e+00,-8.690952062606811523e-01,-1.007240676879882812e+01,-9.337386488914489746e-01,-3.570556640625000000e+00,-1.373291015625000000e-01,7.400512695312500000e-01
5.466196537017822266e+00,-8.690952062606811523e-01,-1.007240676879882812e+01,-9.624690413475035511e-01,-3.570556640625000000e+00,-8.621215820312500000e-01,5.264282226562500000e-01
5.481407403945922852e+00,-8.475474119186401367e-01,-1.006043529510498047e+01,-9.792284965515135609e-01,-3.570556640625000000e+00,3.128051757812500000e-01,5.264282226562500000e-01
5.496245622634887695e+00,-8.475474119186401367e-01,-1.003409957885742188e+01,-9.792284965515135609e-01,-3.616333007812500000e+00,3.128051757812500000e-01,5.874633789062500000e-01
5.508210182189941406e+00,-9.576806426048279919e-01,-1.002691650390625000e+01,-8.906430006027221680e-01,-3.982543945312500000e+00,3.128051757812500000e-01,5.874633789062500000e-01
5.523011922836303711e+00,-9.576806426048279919e-01,-9.955090522766111505e+00,-8.619126081466674805e-01,-3.982543945312500000e+00,7.705688476562500000e-01,-2.288818359375000000e-02
5.534790039062500000e+00,-8.475474119186401367e-01,-9.993397712707519531e+00,-8.906430006027221680e-01,-3.982543945312500000e+00,2.822875976562500000e-01,-2.288818359375000000e-02
5.550851583480834961e+00,-8.331821560859680176e-01,-9.964667320251464844e+00,-8.930371999740600586e-01,-3.524780273437500000e+00,4.577636718750000000e-02,1.907348632812500000e-01
5.567333698272705078e+00,-8.475474119186401367e-01,-9.993397712707519531e+00,-9.481038451194764294e-01,-3.494262695312500000e+00,-4.577636718750000000e-02,2.288818359375000000e-01
5.578786134719848633e+00,-8.475474119186401367e-01,-1.002452278137207031e+01,-8.930371999740600586e-01,-3.494262695312500000e+00,-2.288818359375000000e-01,5.264282226562500000e-01
5.592365026473999023e+00,-8.475474119186401367e-01,-1.002452278137207031e+01,-9.097966551780699573e-01,-3.494262695312500000e+00,-7.629394531250000000e-02,5.493164062500000000e-01
5.606396198272705078e+00,-8.475474119186401367e-01,-1.000776290893554865e+01,-9.097966551780699573e-01,-3.700256347656250000e+00,-7.629394531250000000e-02,5.798339843750000000e-01
5.618624210357666016e+00,-8.188169598579406738e-01,-1.000776290893554865e+01,-9.409212470054626465e-01,-3.829956054687500000e+00,-7.629394531250000000e-02,8.850097656250000000e-01
5.630926609039306641e+00,-8.882488012313842773e-01,-1.002691650390625000e+01,-9.457096457481384277e-01,-3.700256347656250000e+00,4.043579101562500000e-01,8.850097656250000000e-01
5.648268938064575195e+00,-8.571242094039916992e-01,-1.004367637634277166e+01,-9.576806426048279919e-01,-3.684997558593750000e+00,-5.264282226562500000e-01,8.850097656250000000e-01
5.661278486251831055e+00,-8.571242094039916992e-01,-1.006522369384765625e+01,-9.528922438621519886e-01,-3.684997558593750000e+00,1.831054687500000000e-01,8.850097656250000000e-01
5.673220396041870117e+00,-8.044517636299133301e-01,-1.006522369384765625e+01,-9.792284965515135609e-01,-3.646850585937500000e+00,-1.602172851562500000e-01,6.179809570312500000e-01
5.690255880355834961e+00,-7.829039692878723145e-01,-1.006522369384765625e+01,-9.792284965515135609e-01,-3.356933593750000000e+00,-1.602172851562500000e-01,3.280639648437500000e-01
5.700703382492065430e+00,-7.829039692878723145e-01,-9.981427192687988281e+00,-9.792284965515135609e-01,-3.356933593750000000e+00,-1.602172851562500000e-01,6.179809570312500000e-01
5.715058803558349609e+00,-8.116343617439270020e-01,-9.909600257873535156e+00,-9.337386488914489746e-01,-3.501892089843750000e+00,-2.288818359375000000e-02,6.866455078125000000e-01
5.729153394699096680e+00,-8.259995579719543457e-01,-9.981427192687988281e+00,-9.337386488914489746e-01,-3.616333007812500000e+00,-2.288818359375000000e-02,6.866455078125000000e-01
5.742362737655639648e+00,-8.259995579719543457e-01,-9.974244117736816406e+00,-9.528922438621519886e-01,-3.723144531250000000e+00,1.983642578125000000e-01,4.425048828125000000e-01
5.756525516510009766e+00,-8.164227604866027832e-01,-1.009156036376953125e+01,-9.528922438621519886e-01,-3.723144531250000000e+00,-1.678466796875000000e-01,4.425048828125000000e-01
5.771276712417602539e+00,-8.164227604866027832e-01,-9.974244117736816406e+00,-8.930371999740600586e-01,-3.723144531250000000e+00,3.814697265625000000e-01,4.425048828125000000e-01
5.783291816711425781e+00,-8.858546018600463867e-01,-9.969455718994140625e+00,-8.930371999740600586e-01,-3.555297851562500000e+00,-1.678466796875000000e-01,3.814697265625000000e-01
5.796291589736938477e+00,-8.858546018600463867e-01,-9.969455718994140625e+00,-9.026139974594116211e-01,-3.433227539062500000e+00,-6.103515625000000000e-02,3.128051757812500000e-01
5.810798406600952148e+00,-8.619126081466674805e-01,-9.923965454101562500e+00,-9.026139974594116211e-01,-3.364562988281250000e+00,-6.103515625000000000e-02,3.128051757812500000e-01
5.825505256652832031e+00,-8.619126081466674805e-01,-9.955090522766111505e+00,-1.012747287750243919e+00,-3.028869628906250000e+00,2.288818359375000000e-01,2.670288085937500000e-01
5.838379383087158203e+00,-8.619126081466674805e-01,-9.945513725280761719e+00,-1.055842876434326172e+00,-2.502441406250000000e+00,2.593994140625000000e-01,9.918212890625000000e-02
5.853408336639404297e+00,-8.283937573432922363e-01,-9.945513725280761719e+00,-1.055842876434326172e+00,-1.930236816406250000e+00,2.441406250000000000e-01,-2.746582031250000000e-01
5.865293025970458984e+00,-8.116343617439270020e-01,-9.926360130310060370e+00,-1.048660278320312500e+00,-1.609802246093750000e+00,2.441406250000000000e-01,-2.746582031250000000e-01
5.879446029663085938e+00,-8.116343617439270020e-01,-9.926360130310060370e+00,-1.043871879577636719e+00,-1.609802246093750000e+00,-3.280639648437500000e-01,4.119873046875000000e-01
5.894975900650024414e+00,-7.781155109405517578e-01,-9.933542251586914062e+00,-1.048660278320312500e+00,-2.189636230468750000e+00,-2.227783203125000000e+00,3.150939941406250000e+00
5.906400442123413086e+00,-7.781155109405517578e-01,-1.019211673736572443e+01,-1.127668976783752441e+00,-2.189636230468750000e+00,-2.227783203125000000e+00,3.150939941406250000e+00
5.921679735183715820e+00,-9.481038451194764294e-01,-1.019211673736572443e+01,-1.127668976783752441e+00,-1.968383789062500000e+00,-1.655578613281250000e+00,1.914978027343750000e+00
5.933600664138793945e+00,-9.481038451194764294e-01,-9.732429504394531250e+00,-1.113303780555725098e+00,-1.220703125000000000e+00,-1.007080078125000000e+00,5.340576171875000000e-01
5.949868202209472656e+00,-7.781155109405517578e-01,-9.732429504394531250e+00,-1.113303780555725098e+00,-1.220703125000000000e+00,7.171630859375000000e-01,5.340576171875000000e-01
5.960637092590332031e+00,-7.781155109405517578e-01,-1.004367637634277166e+01,-9.600748419761657715e-01,-1.144409179687500000e-01,7.171630859375000000e-01,1.129150390625000000e+00
5.977204799652099609e+00,-1.110909581184387207e+00,-1.004367637634277166e+01,-1.247379064559936301e+00,1.564025878906250000e+00,-2.510070800781250000e+00,3.883361816406250000e+00
5.987947940826416016e+00,-1.125274777412414551e+00,-9.955090522766111505e+00,-9.600748419761657715e-01,1.564025878906250000e+00,-2.510070800781250000e+00,3.883361816406250000e+00
6.003130197525024414e+00,-1.110909581184387207e+00,-9.955090522766111505e+00,-1.175552964210510476e+00,-3.509521484375000000e-01,-2.113342285156250000e+00,3.051757812500000000e-02
6.017809152603149414e+00,-9.457096457481384277e-01,-9.749189376831056464e+00,-9.217676520347596325e-01,-3.509521484375000000e-01,-1.525878906250000000e-02,-1.144409179687500000e+00
6.029511451721191406e+00,-8.595184087753295898e-01,-1.019929885864257812e+01,-9.217676520347596325e-01,-2.365112304687500000e-01,1.396179199218750000e+00,-1.144409179687500000e+00
6.044568061828613281e+00,-9.457096457481384277e-01,-9.979032516479492188e+00,-9.217676520347596325e-01,-2.365112304687500000e-01,-1.525878906250000000e-02,-6.790161132812500000e-01
6.057431221008300781e+00,-1.070208191871643066e+00,-1.005564689636230469e+01,-8.954313993453979492e-01,4.653930664062500000e-01,-7.705688476562500000e-01,-6.332397460937500000e-01
6.071450471878051758e+00,-1.070208191871643066e+00,-9.979032516479492188e+00,-1.163581967353820801e+00,4.653930664062500000e-01,-7.705688476562500000e-01,-6.332397460937500000e-01
6.084384679794311523e+00,-9.552864432334899902e-01,-9.947907447814939630e+00,-1.065419793128967285e+00,5.264282226562500000e-01,1.899719238281250000e+00,-3.448486328125000000e+00
6.099334955215454102e+00,-7.900865674018859863e-01,-9.770736694335937500e+00,-1.065419793128967285e+00,2.593994140625000000e+00,1.899719238281250000e+00,-3.448486328125000000e+00
6.110428571701049805e+00,-4.908113479614257812e-01,-9.792284965515136719e+00,-8.810662031173706055e-01,3.921508789062500000e+00,1.884460449218750000e+00,-2.395629882812500000e+00
6.126430988311767578e+00,-4.908113479614257812e-01,-9.792284965515136719e+00,-8.810662031173706055e-01,3.921508789062500000e+00,1.441955566406250000e+00,-1.808166503906250000e+00
6.138712406158447266e+00,-8.188169598579406738e-01,-1.006043529510498047e+01,-9.911994934082032360e-01,3.181457519531250000e+00,-8.010864257812500000e-01,-1.121520996093750000e+00
6.152474403381347656e+00,-1.067813992500305176e+00,-1.021366405487060369e+01,-9.911994934082032360e-01,6.408691406250000000e-01,-1.525878906250000000e-02,-1.426696777343750000e+00
6.167952537536621094e+00,-1.067813992500305176e+00,-1.021366405487060369e+01,-9.911994934082032360e-01,6.408691406250000000e-01,-1.525878906250000000e-02,-1.426696777343750000e+00
6.180346965789794922e+00,-1.060631394386291504e+00,-1.007480049133300781e+01,-1.149216771125793679e+00,7.095336914062500000e-01,1.068115234375000000e+00,-1.426696777343750000e+00
6.197291612625122070e+00,-6.081272363662719727e-01,-9.873687744140623224e+00,-1.149216771125793679e+00,1.007080078125000000e+00,1.327514648437500000e+00,-1.258850097656250000e+00
6.207795381546020508e+00,-6.081272363662719727e-01,-9.651026725769044745e+00,-1.149216771125793679e+00,2.319335937500000000e+00,1.068115234375000000e+00,-5.416870117187500000e-01
6.221433401107788086e+00,-9.217676520347596325e-01,-9.607931137084959161e+00,-7.206547260284423828e-01,2.319335937500000000e+00,-4.577636718750000000e-01,-5.416870117187500000e-01
6.236411809921264648e+00,-9.217676520347596325e-01,-9.607931137084959161e+00,-8.020575642585754395e-01,2.059936523437500000e+00,-4.577636718750000000e-01,6.256103515625000000e-01
6.249454259872436523e+00,-7.709329128265380859e-01,-9.785101890563964844e+00,-7.709329128265380859e-01,1.449584960937500000e-01,-4.577636718750000000e-01,6.256103515625000000e-01
6.263456106185913086e+00,-7.709329128265380859e-01,-9.995792388916015625e+00,-7.709329128265380859e-01,-3.433227539062500000e-01,-7.629394531250000000e-02,6.256103515625000000e-01
6.278438329696655273e+00,-7.709329128265380859e-01,-9.995792388916015625e+00,-7.637503147125244141e-01,-1.007080078125000000e+00,1.403808593750000000e+00,-1.449584960937500000e-01
6.291074752807617188e+00,-1.012747287750243919e+00,-1.015141487121582031e+01,-7.637503147125244141e-01,-1.754760742187500000e+00,1.403808593750000000e+00,-1.449584960937500000e-01
6.303128004074096680e+00,-7.086836695671081543e-01,-1.015141487121582031e+01,-8.762778043746948242e-01,-1.754760742187500000e+00,1.403808593750000000e+00,-5.569458007812500000e-01
6.320318222045898438e+00,-1.173158764839172363e+00,-1.008198356628417969e+01,-9.983820915222167969e-01,-8.697509765625000000e-01,-4.043579101562500000e-01,2.136230468750000000e-01
6.333287000656127930e+00,-6.727706789970397949e-01,-9.952695846557615411e+00,-8.762778043746948242e-01,2.235412597656250000e+00,-1.579284667968750000e+00,4.501342773437500000e-01
6.344806194305419922e+00,-8.595184087753295898e-01,-9.665391921997070312e+00,-8.307879567146301270e-01,2.372741699218750000e+00,-1.579284667968750000e+00,4.501342773437500000e-01
6.362335443496704102e+00,-8.116343617439270020e-01,-9.636661529541015625e+00,-5.099649429321289062e-01,2.372741699218750000e+00,-1.243591308593750000e+00,-7.247924804687500000e-01
6.373140335083007812e+00,-8.116343617439270020e-01,-9.636661529541015625e+00,-4.932055473327636164e-01,-2.662658691406250000e+00,2.593994140625000000e+00,-7.247924804687500000e-01
6.386825084686279297e+00,-8.116343617439270020e-01,-9.753977775573730469e+00,-5.099649429321289062e-01,-2.746582031250000000e+00,3.150939941406250000e+00,-4.051208496093750000e+00
6.401202917098999023e+00,-6.871358752250671387e-01,-1.003888797760009766e+01,-7.972691655158996582e-01,-2.746582031250000000e+00,4.631042480468750000e+00,-4.760742187500000000e+00
6.414480447769165039e+00,-9.074024558067321777e-01,-9.981427192687988281e+00,-7.972691655158996582e-01,-8.697509765625000000e-01,4.631042480468750000e+00,-4.760742187500000000e+00
6.429191589355468750e+00,-9.696516990661619984e-01,-9.981427192687988281e+00,-7.493851184844970703e-01,2.899169921875000000e-01,-7.858276367187500000e-01,1.686096191406250000e+00
6.443357944488525391e+00,-1.149216771125793679e+00,-9.586383819580078125e+00,-5.961562395095825195e-01,2.899169921875000000e-01,-7.858276367187500000e-01,1.686096191406250000e+00
6.455889701843261719e+00,-1.149216771125793679e+00,-9.586383819580078125e+00,-3.375824391841887873e-01,-6.713867187500000000e-01,5.271911621093750000e+00,-6.889343261718750000e+00
6.468598604202270508e+00,-1.110909581184387207e+00,-9.564835548400880683e+00,-1.149216815829277039e-01,-2.754211425781250000e+00,5.271911621093750000e+00,-6.889343261718750000e+00
6.483100414276123047e+00,-7.589619159698486328e-01,-9.605537414550779474e+00,-1.149216815829277039e-01,-3.242492675781250000e+00,1.396179199218750000e+00,-4.791259765625000000e+00
6.495157003402709961e+00,-7.589619159698486328e-01,-9.483432769775390625e+00,-1.987187415361403864e-01,-3.242492675781250000e+00,4.577636718750000000e-01,-3.463745117187500000e+00
6.510255336761474609e+00,-7.589619159698486328e-01,-9.801861763000488281e+00,-1.987187415361403864e-01,-1.747131347656250000e+00,-2.372741699218750000e+00,-1.747131347656250000e+00
6.521911621093750000e+00,-1.441309452056884766e+00,-9.801861763000488281e+00,-9.481038451194764294e-01,-1.747131347656250000e+00,-2.372741699218750000e+00,-1.747131347656250000e+00
6.536716222763061523e+00,-1.441309452056884766e+00,-1.007958889007568359e+01,-9.481038451194764294e-01,-1.747131347656250000e+00,-2.372741699218750000e+00,-1.747131347656250000e+00
6.552345514297485352e+00,-4.644751250743865967e-01,-1.007958889007568359e+01,-9.648632407188415527e-01,-1.342773437500000000e+00,2.517700195312500000e+00,-5.874633789062500000e-01
6.563538789749145508e+00,-4.213795065879821777e-01,-9.876081466674804688e+00,-1.031900882720947266e+00,-1.342773437500000000e+00,2.517700195312500000e+00,-5.874633789062500000e-01
6.578847408294677734e+00,-2.011129409074783048e-01,-9.876081466674804688e+00,-1.031900882720947266e+00,-2.990722656250000000e+00,1.301574707031250000e+01,1.144409179687500000e+00
6.591207742691040039e+00,-4.213795065879821777e-01,-9.440337181091308594e+00,2.066195964813232422e+00,-2.990722656250000000e+00,1.301574707031250000e+01,4.234313964843750000e+00
6.606414794921875000e+00,-1.383848547935485840e+00,-8.070854187011718750e+00,2.066195964813232422e+00,-4.060363769531250000e+01,1.943206787109375000e+01,4.234313964843750000e+00
6.617396354675292969e+00,-2.820369482040405273e+00,-8.070854187011718750e+00,-1.080024337768554865e+01,-7.962036132812500000e+01,3.626251220703125000e+01,-4.377746582031250000e+01
6.633483409881591797e+00,-8.492233276367187500e+00,-9.679757118225097656e+00,-1.465969657897949219e+01,-7.962036132812500000e+01,3.626251220703125000e+01,-4.377746582031250000e+01
6.647442817687988281e+00,-8.492233276367187500e+00,-9.679757118225097656e+00,-1.080024337768554865e+01,-7.943725585937500000e+01,-7.821655273437500000e+01,9.494781494140623579e+01
6.659886598587036133e+00,-8.492233276367187500e+00,-1.930205345153808949e+01,1.956541633605957031e+01,-7.943725585937500000e+01,-7.821655273437500000e+01,9.494781494140623579e+01
6.674857616424560547e+00,9.193734169006347656e+00,-1.961330032348632812e+01,1.956541633605957031e+01,-1.034469604492187642e+02,-1.310729980468750000e+02,9.494781494140623579e+01
6.687115669250488281e+00,-1.961330032348632812e+01,-1.961330032348632812e+01,-1.131020832061767578e+01,-1.298904418945312500e+02,1.672897338867187500e+02,-2.289505004882812500e+02
6.702183723449707031e+00,-2.499546527862548828e+00,-1.493742370605468750e+01,-1.131020832061767578e+01,-1.298904418945312500e+02,-1.310729980468750000e+02,1.518783569335937500e+02
6.714317083358764648e+00,-2.499546527862548828e+00,-1.335964488983154475e+01,-6.639121055603027344e+00,3.970336914062500000e+01,1.019287109375000000e+02,-1.301498413085937500e+02
6.728724002838134766e+00,-2.499546527862548828e+00,-1.185608673095703125e+01,-1.771709203720092773e+00,4.947662353515625000e+01,-4.112243652343750000e+01,3.928375244140625000e+01
6.740695714950561523e+00,4.838681697845458984e+00,-9.093177795410156250e+00,-3.974374830722808838e-01,4.947662353515625000e+01,-6.790161132812500000e+00,2.832031250000000000e+01
6.756033658981323242e+00,-6.445190906524658203e+00,-7.364564418792724609e+00,-3.974374830722808838e-01,-1.015472412109375000e+01,-6.790161132812500000e+00,2.832031250000000000e+01
6.770735025405883789e+00,-2.566584110260009766e+00,-9.093177795410156250e+00,-3.974374830722808838e-01,-1.610565185546875000e+01,-6.790161132812500000e+00,2.007293701171875000e+01
6.782366752624511719e+00,-2.566584110260009766e+00,-1.109951877593993963e+01,-3.679888010025023970e+00,-1.610565185546875000e+01,9.941101074218750000e+00,-1.347351074218750000e+01
6.798255205154418945e+00,-1.668758511543273926e+00,-1.109951877593993963e+01,-3.679888010025023970e+00,-7.629394531250000000e-02,-9.780883789062500000e+00,2.799987792968750000e+00
6.810190200805664062e+00,-4.261679053306579035e-01,-9.313444137573242188e+00,-1.819593310356139915e+00,-7.629394531250000000e-02,2.311706542968750000e+00,2.799987792968750000e+00
6.827308893203735352e+00,-4.261679053306579035e-01,-9.313444137573242188e+00,-1.489193439483642578e+00,-3.372192382812500000e+00,2.311706542968750000e+00,4.913330078125000000e+00
6.838559627532958984e+00,-2.324769735336304155e+00,-9.368511199951171875e+00,-1.819593310356139915e+00,-3.372192382812500000e+00,2.311706542968750000e+00,5.409240722656250000e+00
6.852387428283691406e+00,-2.324769735336304155e+00,-1.032140350341796875e+01,-2.391807556152344194e+00,-1.419067382812500000e+00,3.753662109375000000e+00,4.913330078125000000e+00
6.869264602661132812e+00,-1.414973139762878418e+00,-1.032140350341796875e+01,-2.391807556152344194e+00,-1.243591308593750000e+00,-1.052856445312500000e+00,-8.804321289062500000e+00
6.880192756652832031e+00,-1.218648672103881836e+00,-1.006522369384765625e+01,-2.379836559295654297e+00,-1.243591308593750000e+00,-1.052856445312500000e+00,-8.804321289062500000e+00
6.893682956695556641e+00,-7.829039692878723145e-01,-1.006522369384765625e+01,-2.379836559295654297e+00,-6.271362304687500000e+00,-1.052856445312500000e+00,7.911682128906250000e+00
6.908235311508178711e+00,-7.829039692878723145e-01,-1.006522369384765625e+01,-2.379836559295654297e+00,-6.271362304687500000e+00,1.335144042968750000e+00,7.911682128906250000e+00
6.920345783233642578e+00,-2.516305923461914062e+00,-1.004367637634277166e+01,-1.800439596176147683e+00,1.594543457031250000e+00,1.335144042968750000e+00,3.677368164062500000e+00
6.932430028915405273e+00,-2.516305923461914062e+00,-9.856927871704101562e+00,-1.156399369239807129e+00,1.594543457031250000e+00,1.289367675781250000e+00,-1.296997070312500000e-01
6.950290441513061523e+00,-3.830722570419310968e-01,-9.856927871704101562e+00,-1.156399369239807129e+00,-4.547119140625000000e+00,-1.853942871093750000e+00,-1.296997070312500000e-01
6.962944984436035156e+00,-2.992752194404602051e-01,-1.041477680206298828e+01,-1.558625221252441406e+00,-4.547119140625000000e+00,-6.103515625000000000e-01,9.536743164062500000e-01
6.974791526794433594e+00,-2.992752194404602051e-01,-1.041477680206298828e+01,-1.558625221252441406e+00,-4.028320312500000000e+00,-6.103515625000000000e-01,4.615783691406250000e+00
6.992161750793457031e+00,-1.977610588073730469e+00,-9.703699111938476562e+00,-8.020575642585754395e-01,-4.028320312500000000e+00,-6.103515625000000000e-01,4.615783691406250000e+00
7.005352497100830078e+00,-1.977610588073730469e+00,-9.703699111938476562e+00,-8.020575642585754395e-01,-4.028320312500000000e+00,-9.002685546875000000e-01,6.637573242187500000e-01
7.017185449600219727e+00,-1.515529632568359375e+00,-1.048660373687743963e+01,-2.082955360412597656e+00,-4.661560058593750000e+00,-9.002685546875000000e-01,-3.189086914062500000e+00
7.031158208847045898e+00,-3.184288144111632746e-01,-1.048660373687743963e+01,-2.082955360412597656e+00,-3.639221191406250000e+00,-1.594543457031250000e+00,-3.189086914062500000e+00
7.043813943862915039e+00,-2.418143749237059992e-01,-1.047463226318359375e+01,-1.795651197433471680e+00,-4.364013671875000000e+00,1.556396484375000000e+00,5.004882812500000000e+00
7.058652877807617188e+00,-3.184288144111632746e-01,-9.684545516967771661e+00,-1.795651197433471680e+00,-4.364013671875000000e+00,-1.785278320312500000e+00,5.104064941406250000e+00
7.073240995407104492e+00,-1.707065820693969505e+00,-9.991003990173339844e+00,-1.900996088981628418e+00,-4.364013671875000000e+00,1.556396484375000000e+00,5.104064941406250000e+00
7.086234569549560547e+00,-1.707065820693969505e+00,-9.991003990173339844e+00,-1.910572886466979980e+00,-2.784729003906250000e+00,-1.373291015625000000e+00,-2.746582031250000000e-01
7.098152160644531250e+00,-4.357447028160095215e-01,-1.012029075622558594e+01,-2.190694570541381836e+00,-2.784729003906250000e+00,1.670837402343750000e+00,-1.129150390625000000e+00
7.113645553588867188e+00,-4.357447028160095215e-01,-1.012029075622558594e+01,-2.190694570541381836e+00,-2.784729003906250000e+00,-4.196166992187500000e-01,-2.746582031250000000e-01
7.124826669692993164e+00,-1.106121182441711426e+00,-1.012029075622558594e+01,-2.190694570541381836e+00,-2.510070800781250000e+00,-4.196166992187500000e-01,4.875183105468750000e+00
7.140208005905151367e+00,-1.158793568611145020e+00,-9.921571731567384589e+00,-2.082955360412597656e+00,-2.510070800781250000e+00,-4.196166992187500000e-01,4.875183105468750000e+00
7.156186580657958984e+00,-1.158793568611145020e+00,-1.019690513610839844e+01,-1.628057122230529785e+00,-2.578735351562500000e+00,-6.332397460937500000e-01,-2.197265625000000000e+00
7.166674137115478516e+00,-6.153098344802856445e-01,-1.019690513610839844e+01,-1.628057122230529785e+00,-2.578735351562500000e+00,1.609802246093750000e+00,-2.769470214843750000e+00
7.181579589843750000e+00,-3.639186620712280273e-01,-1.019690513610839844e+01,-1.628057122230529785e+00,-2.395629882812500000e+00,-4.425048828125000000e-01,-2.197265625000000000e+00
7.193928480148315430e+00,-3.639186620712280273e-01,-1.021845245361327947e+01,-1.474828243255615234e+00,-2.395629882812500000e+00,1.823425292968750000e+00,1.106262207031250000e+00
7.208665609359741211e+00,-1.149216771125793679e+00,-9.897629737854003906e+00,-1.434126853942871094e+00,-2.494812011718750000e+00,-4.425048828125000000e-01,1.106262207031250000e+00
7.221411943435668945e+00,-1.149216771125793679e+00,-1.021845245361327947e+01,-1.474828243255615234e+00,-2.494812011718750000e+00,-1.724243164062500000e+00,8.316040039062500000e-01
7.235594034194946289e+00,-7.613561153411865234e-01,-9.722852706909179688e+00,-1.419761538505554199e+00,-2.494812011718750000e+00,-1.724243164062500000e+00,-3.746032714843750000e+00
7.251190185546875000e+00,-3.327940404415130060e-01,-9.923965454101562500e+00,-1.240196466445922852e+00,-2.410888671875000000e+00,-1.724243164062500000e+00,-3.746032714843750000e+00
7.262734413146972656e+00,-7.134720683097839355e-01,-9.923965454101562500e+00,-1.240196466445922852e+00,-4.692077636718750000e+00,-3.890991210937500000e-01,5.722045898437500000e+00
7.278089523315429688e+00,-7.134720683097839355e-01,-1.032619190216064453e+01,-1.750161409378051758e+00,-6.111145019531250000e+00,-3.890991210937500000e-01,5.722045898437500000e+00
7.289503574371337891e+00,-1.553836822509765625e+00,-1.032619190216064453e+01,-1.800439596176147683e+00,-6.111145019531250000e+00,-2.899169921875000000e-01,4.577636718750000000e-01
7.304806709289550781e+00,-1.553836822509765625e+00,-1.007958889007568359e+01,-1.800439596176147683e+00,-5.607604980468750000e+00,-1.220703125000000000e-01,-1.571655273437500000e+00
7.320556879043579102e+00,-4.453215003013610840e-01,-9.971849441528320312e+00,-1.800439596176147683e+00,-5.607604980468750000e+00,7.019042968750000000e-01,-1.571655273437500000e+00
7.331623792648315430e+00,-3.639186620712280273e-01,-1.007958889007568359e+01,-2.080561161041260210e+00,-5.607604980468750000e+00,-1.220703125000000000e-01,2.288818359375000000e-02
7.346913814544677734e+00,-4.453215003013610840e-01,-9.995792388916015625e+00,-2.250549554824829102e+00,-2.479553222656250000e+00,2.593994140625000000e-01,1.327514648437500000e+00
7.358605384826660156e+00,-1.405396342277526855e+00,-9.995792388916015625e+00,-2.250549554824829102e+00,-2.479553222656250000e+00,-1.007080078125000000e+00,1.327514648437500000e+00
7.373930215835571289e+00,-1.405396342277526855e+00,-9.916783332824708808e+00,-1.711854219436645508e+00,-2.723693847656250000e+00,-1.007080078125000000e+00,-4.043579101562500000e-01
7.385558605194091797e+00,-1.240196466445922852e+00,-9.916783332824708808e+00,-1.711854219436645508e+00,-3.257751464843750000e+00,-1.007080078125000000e+00,-2.044677734375000000e+00
7.400318622589111328e+00,-6.344634294509887695e-01,-9.890446662902832031e+00,-1.996764183044433594e+00,-2.929687500000000000e+00,4.501342773437500000e-01,-2.044677734375000000e+00
7.418384790420532227e+00,-6.344634294509887695e-01,-1.018493366241455078e+01,-1.996764183044433594e+00,-2.929687500000000000e+00,4.501342773437500000e-01,2.937316894531250000e+00
7.428711891174316406e+00,-1.058237075805664062e+00,-1.003649330139160156e+01,-1.659181714057922363e+00,-2.929687500000000000e+00,-7.629394531250000000e-03,2.937316894531250000e+00
