# elapsed time, f2_acc_x, f2_acc_y, f2_acc_z, f2_gyro_x, f2_gyro_y, f2_gyro_z
9.040090799331665039e+00,-2.655169725418090820e+00,4.055777549743652344e+00,8.669404029846191406e+00,4.653930664062500000e-01,1.983642578125000000e-01,3.051757812500000000e-02
9.052205562591552734e+00,-2.655169725418090820e+00,4.070142745971679688e+00,8.669404029846191406e+00,3.509521484375000000e-01,2.517700195312500000e-01,7.629394531250000000e-03
9.067004203796386719e+00,-2.671929121017456055e+00,4.134786128997802734e+00,8.669404029846191406e+00,4.043579101562500000e-01,1.983642578125000000e-01,7.629394531250000000e-03
9.078647375106811523e+00,-2.681505918502808061e+00,4.134786128997802734e+00,8.652645111083984375e+00,3.509521484375000000e-01,1.525878906250000000e-02,7.629394531250000000e-03
9.093656063079833984e+00,-2.681505918502808061e+00,4.074931144714356357e+00,8.635885238647460938e+00,4.043579101562500000e-01,-2.288818359375000000e-02,-1.373291015625000000e-01
9.106766223907470703e+00,-2.681505918502808061e+00,4.029441356658936435e+00,8.621520042419433594e+00,4.272460937500000000e-01,-2.288818359375000000e-02,-1.373291015625000000e-01
9.121698856353759766e+00,-2.628833532333374023e+00,4.022258758544921875e+00,8.585607528686523438e+00,4.272460937500000000e-01,-2.288818359375000000e-02,-1.373291015625000000e-01
9.132999897003173828e+00,-2.691082715988159180e+00,4.022258758544921875e+00,8.585607528686523438e+00,4.959106445312500000e-01,0.000000000000000000e+00,-3.662109375000000000e-01
9.147829294204711914e+00,-2.691082715988159180e+00,4.091690540313720703e+00,8.731653213500976562e+00,4.272460937500000000e-01,0.000000000000000000e+00,4.577636718750000000e-02
9.163873195648193359e+00,-2.691082715988159180e+00,4.113238334655761719e+00,8.731653213500976562e+00,3.585815429687500000e-01,0.000000000000000000e+00,4.577636718750000000e-02
9.174620866775512695e+00,-2.679111719131469727e+00,4.113238334655761719e+00,8.561665534973144531e+00,3.585815429687500000e-01,9.155273437500000000e-02,4.577636718750000000e-02
9.189903736114501953e+00,-2.638410329818725586e+00,4.060565948486328125e+00,8.561665534973144531e+00,4.348754882812500000e-01,9.155273437500000000e-02,3.051757812500000000e-02
9.202960491180419922e+00,-2.638410329818725586e+00,4.027047157287597656e+00,8.748413085937500000e+00,4.348754882812500000e-01,3.051757812500000000e-02,-2.212524414062500000e-01
9.216967105865478516e+00,-2.638410329818725586e+00,4.060565948486328125e+00,8.767566680908203125e+00,4.577636718750000000e-01,3.051757812500000000e-02,-2.212524414062500000e-01
9.229687213897705078e+00,-2.604891300201416016e+00,4.031835556030273438e+00,8.779537200927734375e+00,4.577636718750000000e-01,3.051757812500000000e-02,-2.212524414062500000e-01
9.244893789291381836e+00,-2.614468097686768022e+00,4.089296340942382812e+00,8.779537200927734375e+00,4.577636718750000000e-01,3.433227539062500000e-01,-1.373291015625000000e-01
9.255971670150756836e+00,-2.614468097686768022e+00,4.134786128997802734e+00,8.779537200927734375e+00,3.890991210937500000e-01,1.296997070312500000e-01,-1.373291015625000000e-01
9.271939039230346680e+00,-2.614468097686768022e+00,4.134786128997802734e+00,8.791508674621582031e+00,3.890991210937500000e-01,1.296997070312500000e-01,-1.373291015625000000e-01
9.288698673248291016e+00,-2.638410329818725586e+00,4.094084739685058594e+00,8.791508674621582031e+00,4.196166992187500000e-01,1.296997070312500000e-01,-2.059936523437500000e-01
9.299552679061889648e+00,-2.659958124160766602e+00,4.094084739685058594e+00,8.765172004699707031e+00,4.425048828125000000e-01,-7.629394531250000000e-03,7.629394531250000000e-03
9.312896251678466797e+00,-2.659958124160766602e+00,4.086902141571044922e+00,8.746018409729003906e+00,4.425048828125000000e-01,-7.629394531250000000e-03,-7.629394531250000000e-03
9.327490329742431641e+00,-2.664746522903442383e+00,4.118026733398437500e+00,8.741230010986328125e+00,3.814697265625000000e-02,-1.907348632812500000e-01,-7.629394531250000000e-03
9.339572191238403320e+00,-2.669534921646118164e+00,4.118026733398437500e+00,8.643068313598632812e+00,2.288818359375000000e-02,-3.738403320312500000e-01,-7.629394531250000000e-03
9.352576732635498047e+00,-2.734178304672241211e+00,4.118026733398437500e+00,8.619126319885253906e+00,-1.907348632812500000e-01,-4.196166992187500000e-01,3.433227539062500000e-01
9.369803667068481445e+00,-2.726995706558227539e+00,4.139574527740479404e+00,8.643068313598632812e+00,-8.239746093750000000e-01,-6.408691406250000000e-01,3.433227539062500000e-01
9.380318403244018555e+00,-2.726995706558227539e+00,4.091690540313720703e+00,8.724471092224121094e+00,-1.014709472656250000e+00,-9.689331054687500000e-01,3.433227539062500000e-01
9.394061088562011719e+00,-2.722207307815552202e+00,4.139574527740479404e+00,8.724471092224121094e+00,-1.304626464843750000e+00,-9.918212890625000000e-01,6.332397460937500000e-01
9.409487485885620117e+00,-2.679111719131469727e+00,4.134786128997802734e+00,8.726864814758300781e+00,-1.785278320312500000e+00,-1.708984375000000000e+00,6.332397460937500000e-01
9.420572757720947266e+00,-2.679111719131469727e+00,4.139574527740479404e+00,8.767566680908203125e+00,-1.785278320312500000e+00,-9.918212890625000000e-01,2.059936523437500000e-01
9.436609983444213867e+00,-2.571372509002685103e+00,4.134786128997802734e+00,8.767566680908203125e+00,-4.425048828125000000e-01,-9.155273437500000000e-01,-7.705688476562500000e-01
9.450659751892089844e+00,-2.499546527862548828e+00,4.134786128997802734e+00,8.619126319885253906e+00,-4.425048828125000000e-01,1.220703125000000000e-01,-8.926391601562500000e-01
9.463406801223754883e+00,-2.446874141693115234e+00,4.134786128997802734e+00,8.590395927429199219e+00,-3.517150878906250000e+00,-9.155273437500000000e-01,-8.926391601562500000e-01
9.475345611572265625e+00,-2.499546527862548828e+00,4.141968727111816406e+00,8.590395927429199219e+00,-3.715515136718750000e+00,1.068115234375000000e-01,7.247924804687500000e-01
9.492614507675170898e+00,-2.499546527862548828e+00,4.141968727111816406e+00,8.671798706054687500e+00,-4.692077636718750000e+00,-1.342773437500000000e+00,9.689331054687500000e-01
9.503626585006713867e+00,-2.657563924789428711e+00,4.027047157287597656e+00,8.757989883422851562e+00,-5.615234375000000000e+00,-1.243591308593750000e+00,7.247924804687500000e-01
9.517157316207885742e+00,-2.657563924789428711e+00,4.027047157287597656e+00,8.671798706054687500e+00,-8.178710937500000000e+00,-1.243591308593750000e+00,7.476806640625000000e-01
9.532073020935058594e+00,-2.657563924789428711e+00,4.072536945343017578e+00,8.714894294738769531e+00,-8.178710937500000000e+00,-1.243591308593750000e+00,-7.934570312500000000e-01
9.543411970138549805e+00,-2.638410329818725586e+00,4.084507942199707031e+00,8.667010307312011719e+00,-8.079528808593750000e+00,-1.434326171875000000e+00,5.187988281250000000e-01
9.556775093078613281e+00,-2.679111719131469727e+00,4.084507942199707031e+00,8.667010307312011719e+00,-7.980346679687500000e+00,-1.434326171875000000e+00,-7.934570312500000000e-01
9.570843219757080078e+00,-2.638410329818725586e+00,4.036623954772949219e+00,8.667010307312011719e+00,-7.003784179687500000e+00,-5.187988281250000000e-01,-1.831054687500000000e-01
9.586132287979125977e+00,-2.679111719131469727e+00,3.974374771118164062e+00,8.793902397155761719e+00,-5.622863769531250000e+00,-5.187988281250000000e-01,-3.051757812500000000e-01
9.597976922988891602e+00,-2.597708702087402344e+00,3.933673381805419922e+00,8.793902397155761719e+00,-5.462646484375000000e+00,-5.187988281250000000e-01,-1.831054687500000000e-01
9.613343000411987305e+00,-2.698265314102172852e+00,3.933673381805419922e+00,8.920795440673828125e+00,-5.622863769531250000e+00,7.629394531250000000e-03,-3.051757812500000000e-01
9.625210523605346680e+00,-2.499546527862548828e+00,3.928884983062744141e+00,8.623914718627929688e+00,-6.210327148437500000e+00,7.629394531250000000e-03,-1.220703125000000000e+00
9.640491247177124023e+00,-2.698265314102172852e+00,3.866635799407958984e+00,8.540117263793945312e+00,-6.828308105468750000e+00,-3.356933593750000000e-01,-1.220703125000000000e+00
9.655562400817871094e+00,-2.602497100830078125e+00,3.866635799407958984e+00,8.540117263793945312e+00,-6.828308105468750000e+00,-3.356933593750000000e-01,1.907348632812500000e-01
9.667536497116088867e+00,-2.643198728561401367e+00,3.866635799407958984e+00,8.667010307312011719e+00,-6.256103515625000000e+00,1.541137695312500000e+00,1.907348632812500000e-01
9.681830406188964844e+00,-2.602497100830078125e+00,3.720589399337768999e+00,8.667010307312011719e+00,-6.256103515625000000e+00,1.541137695312500000e+00,1.907348632812500000e-01
9.694666385650634766e+00,-2.643198728561401367e+00,3.720589399337768999e+00,8.772355079650878906e+00,-6.904602050781250000e+00,1.541137695312500000e+00,-2.716064453125000000e+00
9.708987712860107422e+00,-2.626439332962036133e+00,4.132391929626464844e+00,8.772355079650878906e+00,-6.904602050781250000e+00,9.536743164062500000e-01,-2.746582031250000000e-01
9.720568418502807617e+00,-2.626439332962036133e+00,4.132391929626464844e+00,8.987833023071289062e+00,-6.904602050781250000e+00,9.536743164062500000e-01,-2.746582031250000000e-01
9.737023115158081055e+00,-2.626439332962036133e+00,4.132391929626464844e+00,8.987833023071289062e+00,-7.720947265625000000e+00,2.593994140625000000e-01,-2.746582031250000000e-01
9.751454591751098633e+00,-2.104503154754638672e+00,3.919308185577392578e+00,8.872911453247070312e+00,-8.247375488281250000e+00,2.593994140625000000e-01,-1.808166503906250000e+00
9.763303041458129883e+00,-2.104503154754638672e+00,3.399766445159912109e+00,8.719682693481445312e+00,-7.720947265625000000e+00,8.468627929687500000e-01,-1.808166503906250000e+00
9.778856992721557617e+00,-2.104503154754638672e+00,3.399766445159912109e+00,8.872911453247070312e+00,-5.592346191406250000e+00,2.090454101562500000e+00,-1.808166503906250000e+00
9.790883541107177734e+00,-2.485181331634521040e+00,3.399766445159912109e+00,8.987833023071289062e+00,-5.592346191406250000e+00,2.090454101562500000e+00,2.365112304687500000e+00
9.804787874221801758e+00,-2.487575531005859819e+00,3.852270364761352983e+00,8.987833023071289062e+00,-7.995605468750000000e+00,6.103515625000000000e-02,4.043579101562500000e-01
9.819731235504150391e+00,-2.887407302856445312e+00,3.658340215682983843e+00,8.987833023071289062e+00,-7.995605468750000000e+00,6.103515625000000000e-02,4.043579101562500000e-01
9.832733392715454102e+00,-3.047818660736083984e+00,3.854664564132689542e+00,8.961496353149414062e+00,-6.790161132812500000e+00,-1.472473144531250000e+00,6.103515625000000000e-02
9.846657991409301758e+00,-2.887407302856445312e+00,3.658340215682983843e+00,8.860939979553222656e+00,-6.790161132812500000e+00,1.434326171875000000e+00,-1.991271972656250000e+00
9.859411716461181641e+00,-2.322375535964965820e+00,3.854664564132689542e+00,8.827421188354492188e+00,-8.262634277343750000e+00,-4.196166992187500000e-01,-1.380920410156250000e+00
9.874761581420898438e+00,-2.322375535964965820e+00,3.672705411911010298e+00,8.662221908569335938e+00,-8.262634277343750000e+00,-4.196166992187500000e-01,-1.380920410156250000e+00
9.886704206466674805e+00,-2.695871114730834961e+00,3.933673381805419922e+00,8.662221908569335938e+00,-7.286071777343750000e+00,-4.196166992187500000e-01,-1.380920410156250000e+00
9.901544809341430664e+00,-2.698265314102172852e+00,3.672705411911010298e+00,8.705317497253417969e+00,-7.286071777343750000e+00,-1.144409179687500000e-01,3.128051757812500000e-01
9.914095401763916016e+00,-2.856282472610473633e+00,4.161122322082520419e+00,9.088389396667480469e+00,-9.231567382812500000e+00,-1.144409179687500000e-01,4.425048828125000000e-01
9.927899122238159180e+00,-2.856282472610473633e+00,3.409343242645264116e+00,9.311050415039062500e+00,-1.344299316406250000e+01,1.060485839843750000e+00,4.425048828125000000e-01
9.940068006515502930e+00,-2.834734678268432617e+00,3.646369218826293945e+00,9.088389396667480469e+00,-1.499176025390625000e+01,-3.715515136718750000e+00,1.411437988281250000e+00
9.957315206527709961e+00,-2.609679698944091797e+00,3.354276418685913086e+00,8.588001251220703125e+00,-1.499176025390625000e+01,1.480102539062500000e+00,-7.324218750000000000e-01
9.967797994613647461e+00,-2.609679698944091797e+00,3.584119796752929688e+00,8.588001251220703125e+00,-1.070404052734375000e+01,-3.715515136718750000e+00,-7.324218750000000000e-01
9.981493234634399414e+00,-2.315192937850952148e+00,3.584119796752929688e+00,8.896853446960449219e+00,-1.047515869140625000e+01,-1.449584960937500000e-01,-1.358032226562500000e+00
9.999624013900756836e+00,-2.437297344207764116e+00,3.596090793609619141e+00,9.114726066589355469e+00,-1.070404052734375000e+01,-1.838684082031250000e+00,-1.358032226562500000e+00
1.001063466072082520e+01,-2.437297344207764116e+00,3.596090793609619141e+00,9.114726066589355469e+00,-1.461029052734375000e+01,-9.307861328125000000e-01,2.975463867187500000e-01
1.002478075027465820e+01,-2.724601507186889648e+00,3.739742994308472124e+00,8.935160636901855469e+00,-1.461029052734375000e+01,-1.838684082031250000e+00,9.384155273437500000e-01
1.003853940963745117e+01,-2.724601507186889648e+00,2.901772499084472656e+00,8.935160636901855469e+00,-1.422882080078125000e+01,-9.307861328125000000e-01,2.975463867187500000e-01
1.005049920082092285e+01,-2.552218914031982422e+00,2.901772499084472656e+00,9.342174530029296875e+00,-1.422882080078125000e+01,6.332397460937500000e-01,9.155273437500000000e-01
1.006313800811767578e+01,-2.552218914031982422e+00,2.901772499084472656e+00,9.342174530029296875e+00,-1.658630371093750000e+01,6.332397460937500000e-01,-2.693176269531250000e+00
1.008034801483154297e+01,-2.669534921646118164e+00,3.337517023086547852e+00,8.992621421813964844e+00,-1.658630371093750000e+01,6.332397460937500000e-01,-2.693176269531250000e+00
1.009324169158935547e+01,-2.669534921646118164e+00,3.337517023086547852e+00,8.992621421813964844e+00,-1.287078857421875000e+01,3.814697265625000000e-02,-2.693176269531250000e+00
1.010489654541015625e+01,-2.669534921646118164e+00,3.337517023086547852e+00,8.992621421813964844e+00,-1.287078857421875000e+01,3.814697265625000000e-02,-1.731872558593750000e+00
1.012241411209106445e+01,-2.590526103973388672e+00,3.234566450119018555e+00,9.234436035156250000e+00,-1.356506347656250000e+01,3.814697265625000000e-02,-1.731872558593750000e+00
1.013389396667480469e+01,-2.590526103973388672e+00,3.234566450119018555e+00,9.234436035156250000e+00,-1.356506347656250000e+01,-9.155273437500000000e-01,-1.731872558593750000e+00
1.014699935913085938e+01,-2.590526103973388672e+00,3.234566450119018555e+00,9.234436035156250000e+00,-1.356506347656250000e+01,9.918212890625000000e-02,-2.624511718750000000e+00
1.016159749031066895e+01,-2.726995706558227539e+00,2.837128877639770508e+00,9.220070838928224433e+00,-1.316070556640625000e+01,-9.155273437500000000e-01,-1.083374023437500000e+00
1.017440629005432129e+01,-2.726995706558227539e+00,2.837128877639770508e+00,9.119514465332031250e+00,-1.316070556640625000e+01,-2.624511718750000000e+00,-2.227783203125000000e+00
1.018977046012878418e+01,-2.700659513473510742e+00,2.837128877639770508e+00,9.119514465332031250e+00,-1.242828369140625000e+01,-2.624511718750000000e+00,-2.227783203125000000e+00
1.020145320892333984e+01,-2.485181331634521040e+00,2.803610086441040039e+00,9.119514465332031250e+00,-1.242828369140625000e+01,-2.624511718750000000e+00,-2.227783203125000000e+00
1.021634411811828613e+01,-2.485181331634521040e+00,2.712630510330200195e+00,9.380481719970703125e+00,-1.494598388671875000e+01,-1.075744628906250000e+00,-1.014709472656250000e+00
1.022805047035217285e+01,-2.485181331634521040e+00,2.712630510330200195e+00,9.380481719970703125e+00,-1.494598388671875000e+01,-1.487731933593750000e+00,-9.460449218750000000e-01
1.024340820312500000e+01,-1.908178687095642090e+00,2.712630510330200195e+00,8.894458770751953125e+00,-1.387786865234375000e+01,-1.075744628906250000e+00,3.814697265625000000e-01
1.025870156288146973e+01,-1.908178687095642090e+00,6.775590777397155762e-01,-9.701305389404296875e+00,1.966247558593750000e+02,-1.487731933593750000e+00,3.622436523437500000e+01
1.027109694480895996e+01,-2.427720546722412109e+00,6.775590777397155762e-01,-9.701305389404296875e+00,1.980285644531250000e+02,1.987457275390625000e+01,3.622436523437500000e+01
1.028505468368530273e+01,-1.400607967376708984e+01,2.003946781158447710e+00,9.816226959228515625e+00,2.499923706054687500e+02,-3.723144531250000000e+00,-5.893707275390625000e+01
1.029684090614318848e+01,-1.400607967376708984e+01,1.252167510986327947e+01,1.148259162902832031e+01,2.499923706054687500e+02,1.987457275390625000e+01,-8.925628662109375000e+01
1.031152319908142090e+01,-1.965639591217041016e+00,1.252167510986327947e+01,1.345541286468506037e+01,2.499923706054687500e+02,-3.723144531250000000e+00,-8.925628662109375000e+01
1.032457780838012695e+01,-1.965639591217041016e+00,8.669404029846191406e+00,1.345541286468506037e+01,1.171417236328125000e+02,3.276062011718750000e+01,-6.087493896484375000e+01
1.033901047706604004e+01,-1.965639591217041016e+00,5.813121795654296875e+00,1.075714778900146484e+01,4.585266113281250000e+01,3.276062011718750000e+01,-3.205871582031250000e+01
1.035411596298217773e+01,-1.438915252685546875e+00,2.607285499572753906e+00,1.035252761840820312e+01,-2.151489257812500000e+01,3.276062011718750000e+01,1.373291015625000000e+00
1.036589765548706055e+01,-1.340752959251403809e+00,2.607285499572753906e+00,9.023746490478515625e+00,-2.716064453125000000e+01,-1.170349121093750000e+01,2.365875244140625000e+01
1.038146185874938965e+01,-1.340752959251403809e+00,4.331110954284667969e+00,8.106766700744628906e+00,-3.731536865234375000e+01,-1.170349121093750000e+01,2.682495117187500000e+01
1.039345717430114746e+01,-5.621585369110107422e+00,5.377377033233642578e+00,8.192957878112792969e+00,-3.731536865234375000e+01,1.777648925781250000e+00,2.682495117187500000e+01
1.040749192237854004e+01,-5.621585369110107422e+00,5.667075157165527344e+00,8.106766700744628906e+00,-2.449798583984375000e+01,2.288818359375000000e+00,9.284973144531250000e+00
1.042060780525207520e+01,-4.194641113281250000e+00,5.667075157165527344e+00,7.884106159210205078e+00,-1.081848144531250000e+01,1.777648925781250000e+00,-4.249572753906250000e+00
1.043478131294250488e+01,-3.926490783691406250e+00,4.402936935424804688e+00,6.330269336700440341e+00,-1.342773437500000000e+00,-2.273559570312500000e+00,-7.637023925781250000e+00
1.044750428199768066e+01,-3.797203779220581055e+00,4.321534156799316406e+00,6.330269336700440341e+00,1.991271972656250000e+01,-5.149841308593750000e+00,-7.637023925781250000e+00
1.046309566497802734e+01,-2.916137695312500000e+00,4.321534156799316406e+00,6.469132900238037109e+00,2.451324462890625000e+01,-1.576995849609375000e+01,-3.044128417968750000e+00
1.047716259956359863e+01,-2.916137695312500000e+00,5.669469356536865234e+00,7.034164428710937500e+00,2.622222900390625000e+01,-1.576995849609375000e+01,1.004028320312500000e+01
1.048954153060913086e+01,-3.787626981735229492e+00,7.137115001678466797e+00,9.124302864074708808e+00,2.622222900390625000e+01,-6.492614746093750000e+00,1.004028320312500000e+01
1.050510859489440918e+01,-3.787626981735229492e+00,7.137115001678466797e+00,9.124302864074708808e+00,-4.325866699218750000e+00,3.105163574218750000e+00,-4.356384277343750000e+00
1.051608180999755859e+01,-2.827552080154418945e+00,6.773196697235107422e+00,8.796297073364257812e+00,-1.506042480468750000e+01,5.218505859375000000e+00,-4.356384277343750000e+00
1.053121519088745117e+01,-2.827552080154418945e+00,6.045359134674072266e+00,7.299921035766601562e+00,-1.506042480468750000e+01,5.218505859375000000e+00,-1.449584960937500000e-01
1.054392600059509277e+01,-3.713406801223754883e+00,4.841075897216796875e+00,7.103596210479736328e+00,-1.249694824218750000e+01,5.592346191406250000e+00,-1.449584960937500000e-01
1.055771374702453613e+01,-3.713406801223754883e+00,4.347870349884033203e+00,6.943184852600097656e+00,-1.073455810546875000e+01,9.765625000000000000e-01,-1.602172851562500000e-01
1.057327747344970703e+01,-3.428496837615966797e+00,4.347870349884033203e+00,6.943184852600097656e+00,4.974365234375000000e+00,-9.002685546875000000e-01,-1.602172851562500000e-01
1.058949780464172363e+01,-3.428496837615966797e+00,5.612008571624755859e+00,7.065289020538330078e+00,1.378631591796875000e+01,-2.532958984375000000e+00,2.975463867187500000e-01
1.060044527053833008e+01,-3.428496837615966797e+00,5.916072368621826172e+00,7.649474143981933594e+00,1.378631591796875000e+01,-2.532958984375000000e+00,2.975463867187500000e-01
1.061213731765747070e+01,-2.578555107116699219e+00,5.916072368621826172e+00,8.001421928405761719e+00,6.629943847656250000e+00,-4.005432128906250000e+00,3.738403320312500000e-01
1.062936401367187500e+01,-2.578555107116699219e+00,5.473145008087158203e+00,8.001421928405761719e+00,-3.517150878906250000e+00,-2.189636230468750000e+00,-3.410339355468750000e+00
1.064014983177185059e+01,-2.796427488327026367e+00,5.473145008087158203e+00,7.321468830108642578e+00,-3.517150878906250000e+00,2.288818359375000000e-01,6.561279296875000000e+00
1.065415477752685547e+01,-3.007117271423339844e+00,6.038176536560058594e+00,7.321468830108642578e+00,-2.731323242187500000e+00,7.423400878906250000e+00,1.968383789062500000e+00
1.066857862472534180e+01,-3.007117271423339844e+00,6.038176536560058594e+00,7.711723327636718750e+00,-2.731323242187500000e+00,2.975463867187500000e+00,1.968383789062500000e+00
1.068089699745178223e+01,-3.007117271423339844e+00,5.240907669067382812e+00,7.711723327636718750e+00,-2.319335937500000000e+00,2.975463867187500000e+00,-4.104614257812500000e+00
1.069309949874877930e+01,-2.868253707885742188e+00,4.862623691558837891e+00,6.991068840026856357e+00,-2.166748046875000000e+00,2.975463867187500000e+00,-4.104614257812500000e+00
1.071023130416870117e+01,-2.868253707885742188e+00,4.862623691558837891e+00,6.991068840026856357e+00,4.219055175781250000e+00,-7.080078125000000000e+00,-2.532958984375000000e+00
1.072056651115417480e+01,-3.165134668350220171e+00,6.095637321472167969e+00,7.450755596160888672e+00,4.219055175781250000e+00,3.555297851562500000e+00,5.340576171875000000e-02
1.073512196540832520e+01,-3.811568975448607954e+00,6.433219909667968750e+00,8.173804283142089844e+00,1.365661621093750000e+00,1.480102539062500000e+00,5.340576171875000000e-02
1.074952030181884766e+01,-3.811568975448607954e+00,6.433219909667968750e+00,8.173804283142089844e+00,-4.196166992187500000e+00,3.555297851562500000e+00,-5.416870117187500000e+00
1.076271986961364746e+01,-3.811568975448607954e+00,4.970362663269042969e+00,7.606378555297851562e+00,-4.196166992187500000e+00,1.480102539062500000e+00,-5.416870117187500000e+00
1.077700090408325195e+01,-2.765302896499633789e+00,4.970362663269042969e+00,7.606378555297851562e+00,-4.425048828125000000e-01,-2.052307128906250000e+00,2.052307128906250000e+00
1.079145312309265137e+01,-3.854664564132689542e+00,5.413290023803710938e+00,7.917624950408934659e+00,3.433227539062500000e+00,-2.159118652343750000e+00,3.326416015625000000e+00
1.080354547500610352e+01,-3.153163671493530273e+00,5.413290023803710938e+00,7.999027729034423828e+00,3.433227539062500000e+00,-2.052307128906250000e+00,2.052307128906250000e+00
1.081669235229492188e+01,-3.153163671493530273e+00,5.382165431976318359e+00,7.917624950408934659e+00,-1.777648925781250000e+00,2.746582031250000000e-01,-1.480102539062500000e+00
1.083106327056884766e+01,-2.722207307815552202e+00,5.372588634490966797e+00,7.122749805450440341e+00,-1.777648925781250000e+00,4.806518554687500000e-01,-1.480102539062500000e+00
1.084576797485351562e+01,-2.722207307815552202e+00,5.382165431976318359e+00,7.122749805450440341e+00,4.333496093750000000e+00,2.746582031250000000e-01,2.571105957031250000e+00
1.085768198966979980e+01,-3.138798475265502930e+00,5.887341976165772373e+00,8.305485725402832031e+00,4.333496093750000000e+00,-2.899169921875000000e-01,2.571105957031250000e+00
1.087349414825439453e+01,-3.260902643203735796e+00,5.887341976165772373e+00,8.305485725402832031e+00,-5.172729492187500000e+00,-2.899169921875000000e-01,-3.822326660156250000e+00
1.088569140434265137e+01,-3.138798475265502930e+00,5.343858242034912109e+00,6.825869083404541016e+00,-5.172729492187500000e+00,-2.899169921875000000e-01,-3.822326660156250000e+00
1.090160799026489258e+01,-2.987963676452636719e+00,5.272032260894775391e+00,6.825869083404541016e+00,2.967834472656250000e+00,3.738403320312500000e+00,-1.724243164062500000e+00
1.091467618942260742e+01,-2.987963676452636719e+00,5.272032260894775391e+00,7.563282966613769531e+00,6.141662597656250000e+00,-3.303527832031250000e+00,5.569458007812500000e-01
1.092672276496887207e+01,-2.987963676452636719e+00,5.774814605712890625e+00,7.642291545867919922e+00,2.967834472656250000e+00,3.738403320312500000e+00,5.569458007812500000e-01
1.094215583801269531e+01,-3.397372245788574219e+00,5.774814605712890625e+00,7.642291545867919922e+00,4.028320312500000000e+00,-3.952026367187500000e+00,5.569458007812500000e-01
1.095513939857482910e+01,-3.325546026229858398e+00,5.475539207458496094e+00,7.642291545867919922e+00,4.028320312500000000e+00,1.564025878906250000e+00,1.678466796875000000e+00
1.096847033500671387e+01,-3.397372245788574219e+00,5.475539207458496094e+00,7.757213592529296875e+00,4.028320312500000000e+00,-3.952026367187500000e+00,1.953125000000000000e+00
1.098185276985168457e+01,-3.325546026229858398e+00,5.822698593139648438e+00,8.214506149291992188e+00,1.533508300781250000e+00,1.564025878906250000e+00,1.678466796875000000e+00
1.099608635902404785e+01,-3.110067844390869141e+00,5.822698593139648438e+00,7.757213592529296875e+00,-6.668090820312500000e+00,3.150939941406250000e+00,-4.600524902343750000e+00
1.101182961463928223e+01,-2.868253707885742188e+00,5.420472621917724609e+00,6.579266071319580078e+00,-6.668090820312500000e+00,3.150939941406250000e+00,-4.600524902343750000e+00
1.102373480796813965e+01,-3.110067844390869141e+00,5.420472621917724609e+00,6.579266071319580078e+00,3.974914550781250000e+00,-1.449584960937500000e-01,3.051757812500000000e-02
1.103810858726501465e+01,-3.141192674636840820e+00,6.323086738586425781e+00,7.491456985473632812e+00,4.463195800781250000e+00,-3.623962402343750000e+00,3.051757812500000000e-02
1.105080008506774902e+01,-3.588908195495605025e+00,6.323086738586425781e+00,7.841010570526123047e+00,4.463195800781250000e+00,-3.623962402343750000e+00,-1.792907714843750000e+00
1.106535649299621582e+01,-3.141192674636840820e+00,6.222529888153076172e+00,7.841010570526123047e+00,-6.233215332031250000e+00,-1.556396484375000000e+00,-2.113342285156250000e+00
1.107772588729858398e+01,-3.378218650817871094e+00,5.008669853210449219e+00,7.505822181701660156e+00,-6.233215332031250000e+00,4.722595214843750000e+00,-2.113342285156250000e+00
1.109296631813049316e+01,-3.289633035659790039e+00,5.008669853210449219e+00,7.505822181701660156e+00,-2.441406250000000000e+00,4.722595214843750000e+00,5.676269531250000000e+00
1.110669183731079102e+01,-3.378218650817871094e+00,5.319916248321533203e+00,7.869740962982177734e+00,-1.556396484375000000e+00,4.722595214843750000e+00,5.676269531250000000e+00
1.111850595474243164e+01,-3.289633035659790039e+00,5.413290023803710938e+00,7.891288757324218750e+00,3.479003906250000000e+00,-6.759643554687500000e+00,-9.765625000000000000e-01
1.113540148735046387e+01,-2.990357875823974609e+00,5.504269599914550781e+00,7.869740962982177734e+00,-1.556396484375000000e+00,2.616882324218750000e+00,-4.486083984375000000e+00
1.114594340324401855e+01,-2.791639089584350586e+00,5.413290023803710938e+00,7.098807811737060547e+00,3.479003906250000000e+00,-3.852844238281250000e+00,-4.486083984375000000e+00
1.116178727149963379e+01,-2.791639089584350586e+00,5.413290023803710938e+00,7.098807811737060547e+00,2.777099609375000000e+00,-4.959106445312500000e-01,2.876281738281250000e+00
1.117490339279174805e+01,-3.004723072052001953e+00,5.413290023803710938e+00,7.819462776184082031e+00,2.777099609375000000e+00,-8.316040039062500000e-01,2.876281738281250000e+00
1.118802785873413086e+01,-3.004723072052001953e+00,5.839457988739013672e+00,7.987056732177734375e+00,7.934570312500000000e-01,-4.959106445312500000e-01,2.449035644531250000e+00
1.119995880126953125e+01,-2.875436305999755859e+00,5.839457988739013672e+00,7.819462776184082031e+00,-4.577636718750000000e+00,3.692626953125000000e+00,-6.446838378906250000e+00
1.121757626533508301e+01,-2.846705675125122070e+00,5.123591423034667969e+00,6.789956092834472656e+00,-4.577636718750000000e+00,3.692626953125000000e+00,-6.446838378906250000e+00
1.123047041893005371e+01,-2.846705675125122070e+00,5.123591423034667969e+00,6.789956092834472656e+00,8.491516113281250000e+00,-1.586914062500000000e+00,3.456115722656250000e+00
1.124188160896301270e+01,-3.081337451934814453e+00,6.260837554931640625e+00,7.781155586242675781e+00,8.491516113281250000e+00,-4.142761230468750000e+00,3.456115722656250000e+00
1.125954818725585938e+01,-3.081337451934814453e+00,6.260837554931640625e+00,7.807491779327392578e+00,3.662109375000000000e+00,-1.586914062500000000e+00,3.051757812500000000e-02
1.127037549018859863e+01,-3.045424461364746094e+00,5.351040840148925781e+00,7.807491779327392578e+00,-3.524780273437500000e+00,1.098632812500000000e+00,-3.700256347656250000e+00
1.128436136245727539e+01,-2.966415882110596147e+00,5.293580055236816406e+00,7.357381820678710938e+00,-3.524780273437500000e+00,2.891540527343750000e+00,-3.700256347656250000e+00
1.129855847358703613e+01,-2.966415882110596147e+00,5.293580055236816406e+00,7.357381820678710938e+00,2.136230468750000000e-01,2.891540527343750000e+00,2.075195312500000000e+00
1.131135702133178711e+01,-2.784456491470336914e+00,5.987898349761962891e+00,7.381323814392089844e+00,2.136230468750000000e-01,9.155273437500000000e-01,2.075195312500000000e+00
1.132277703285217285e+01,-3.356670618057250977e+00,5.987898349761962891e+00,7.620743751525878906e+00,9.155273437500000000e-02,9.155273437500000000e-01,-1.937866210937500000e+00
1.134038996696472168e+01,-3.258508443832397017e+00,5.147533416748046875e+00,7.620743751525878906e+00,-1.060485839843750000e+00,2.044677734375000000e+00,-1.937866210937500000e+00
1.135324740409851074e+01,-3.258508443832397017e+00,5.147533416748046875e+00,7.620743751525878906e+00,-1.060485839843750000e+00,2.044677734375000000e+00,-1.602172851562500000e+00
1.136514258384704590e+01,-3.227383852005004883e+00,5.473145008087158203e+00,7.726088523864746094e+00,4.882812500000000000e-01,-7.553100585937500000e-01,1.800537109375000000e+00
1.138238310813903809e+01,-3.227383852005004883e+00,5.473145008087158203e+00,7.977479934692382812e+00,4.882812500000000000e-01,-7.553100585937500000e-01,1.800537109375000000e+00
1.139309573173522949e+01,-3.227383852005004883e+00,5.310339450836181641e+00,7.977479934692382812e+00,-2.593994140625000000e-01,-7.553100585937500000e-01,-4.188537597656250000e+00
1.140705919265747070e+01,-2.671929121017456055e+00,5.310339450836181641e+00,7.177816390991210938e+00,-2.593994140625000000e-01,-1.525878906250000000e+00,-4.188537597656250000e+00
1.141922378540039062e+01,-2.671929121017456055e+00,5.889736175537109375e+00,7.177816390991210938e+00,4.028320312500000000e+00,-1.525878906250000000e+00,1.098632812500000000e+00
1.143418121337890625e+01,-3.222595453262329102e+00,5.889736175537109375e+00,8.130708694458007812e+00,4.028320312500000000e+00,-3.707885742187500000e+00,1.098632812500000000e+00
1.144894671440124512e+01,-3.222595453262329102e+00,5.889736175537109375e+00,8.130708694458007812e+00,-1.022338867187500000e+00,1.434326171875000000e+00,-1.068115234375000000e+00
1.146096968650817871e+01,-2.542642116546630859e+00,5.336675643920898438e+00,7.362170219421386719e+00,-1.022338867187500000e+00,1.434326171875000000e+00,-1.068115234375000000e+00
1.147588062286376953e+01,-2.542642116546630859e+00,5.789179801940917969e+00,7.362170219421386719e+00,-1.907348632812500000e-01,1.434326171875000000e+00,-1.144409179687500000e-01
1.148872566223144531e+01,-3.244143247604370117e+00,5.789179801940917969e+00,7.424419403076171875e+00,1.846313476562500000e+00,2.120971679687500000e+00,-1.144409179687500000e-01
1.150361227989196777e+01,-3.244143247604370117e+00,5.789179801940917969e+00,7.886500358581542969e+00,1.846313476562500000e+00,2.120971679687500000e+00,-3.204345703125000000e+00
1.151503109931945801e+01,-3.244143247604370117e+00,5.659892559051513672e+00,7.886500358581542969e+00,-1.831054687500000000e-01,2.120971679687500000e+00,-3.204345703125000000e+00
1.152964997291564941e+01,-2.968810081481933594e+00,5.659892559051513672e+00,7.046135425567626953e+00,-1.831054687500000000e-01,-1.190185546875000000e+00,-1.640319824218750000e+00
1.154574632644653320e+01,-2.968810081481933594e+00,5.702988147735595703e+00,7.046135425567626953e+00,4.066467285156250000e+00,-1.190185546875000000e+00,-5.493164062500000000e-01
1.155739021301269531e+01,-2.968810081481933594e+00,5.829881191253662109e+00,8.176198959350585938e+00,4.066467285156250000e+00,-2.426147460937500000e+00,1.815795898437500000e+00
1.157237029075622559e+01,-3.117250442504882812e+00,5.829881191253662109e+00,8.176198959350585938e+00,-4.920959472656250000e+00,1.518249511718750000e+00,-5.493164062500000000e-01
1.158432245254516602e+01,-3.117250442504882812e+00,5.181052207946777344e+00,7.771578788757324219e+00,-4.920959472656250000e+00,-2.426147460937500000e+00,1.815795898437500000e+00
1.159833312034606934e+01,-3.117250442504882812e+00,5.181052207946777344e+00,7.771578788757324219e+00,2.487182617187500000e+00,4.028320312500000000e+00,-1.091003417968750000e+00
1.161093854904174805e+01,-3.215412855148315430e+00,5.090072631835937500e+00,7.771578788757324219e+00,2.487182617187500000e+00,4.028320312500000000e+00,-1.091003417968750000e+00
1.162617111206054688e+01,-3.215412855148315430e+00,5.023035049438476562e+00,7.438784599304199219e+00,-2.494812011718750000e+00,4.028320312500000000e+00,-2.174377441406250000e+00
1.164175581932067871e+01,-2.975992679595947710e+00,5.023035049438476562e+00,7.029376029968261719e+00,-2.494812011718750000e+00,-1.838684082031250000e+00,-2.174377441406250000e+00
1.165256214141845703e+01,-2.975992679595947710e+00,5.336675643920898438e+00,7.029376029968261719e+00,9.475708007812500000e+00,-2.441406250000000000e+00,3.692626953125000000e+00
1.166863989830017090e+01,-3.315969228744506836e+00,6.284779548645020419e+00,8.192957878112792969e+00,9.475708007812500000e+00,-2.555847167968750000e+00,3.692626953125000000e+00
1.168074488639831543e+01,-3.315969228744506836e+00,6.284779548645020419e+00,8.192957878112792969e+00,-3.700256347656250000e+00,-2.441406250000000000e+00,-2.456665039062500000e+00
1.169463467597961426e+01,-2.954444885253906250e+00,5.497087001800537109e+00,7.082048416137695312e+00,-3.700256347656250000e+00,-2.555847167968750000e+00,-2.456665039062500000e+00
1.170731759071350098e+01,-2.940079689025878906e+00,5.497087001800537109e+00,7.082048416137695312e+00,6.034851074218750000e+00,1.113891601562500000e+00,3.906250000000000000e+00
1.172279715538024902e+01,-2.940079689025878906e+00,5.535394191741943359e+00,7.613561153411865234e+00,6.034851074218750000e+00,1.113891601562500000e+00,3.906250000000000000e+00
1.173425126075744629e+01,-2.940079689025878906e+00,5.535394191741943359e+00,7.613561153411865234e+00,-5.920410156250000000e+00,1.113891601562500000e+00,-4.508972167968750000e+00
1.174879932403564453e+01,-2.825157880783081055e+00,5.243301868438720703e+00,7.034164428710937500e+00,-5.920410156250000000e+00,2.365112304687500000e-01,-4.508972167968750000e+00
1.176488280296325684e+01,-2.825157880783081055e+00,5.243301868438720703e+00,7.034164428710937500e+00,7.194519042968750000e+00,-1.319885253906250000e+00,2.914428710937500000e+00
1.177670979499816895e+01,-3.418920040130615234e+00,6.069301128387451172e+00,8.090007781982421875e+00,7.194519042968750000e+00,-1.747131347656250000e+00,2.914428710937500000e+00
1.179115533828735352e+01,-3.418920040130615234e+00,6.069301128387451172e+00,8.090007781982421875e+00,-1.068115234375000000e-01,-1.747131347656250000e+00,-2.410888671875000000e+00
1.180530476570129395e+01,-2.686294317245483398e+00,5.621585369110107422e+00,7.450755596160888672e+00,-1.068115234375000000e-01,-7.171630859375000000e-01,-2.410888671875000000e+00
1.181844782829284668e+01,-2.686294317245483398e+00,5.568912982940673828e+00,7.240066051483154297e+00,1.625061035156250000e+00,-7.171630859375000000e-01,5.126953125000000000e+00
1.183023166656494141e+01,-3.517082214355468750e+00,5.568912982940673828e+00,7.240066051483154297e+00,4.943847656250000000e+00,-1.152038574218750000e+00,5.126953125000000000e+00
1.184778952598571777e+01,-3.517082214355468750e+00,6.038176536560058594e+00,8.477868080139160156e+00,4.943847656250000000e+00,-1.152038574218750000e+00,0.000000000000000000e+00
1.185947680473327637e+01,-3.488351821899414062e+00,6.038176536560058594e+00,8.477868080139160156e+00,-5.950927734375000000e+00,1.182556152343750000e+00,-4.760742187500000000e+00
1.187200951576232910e+01,-2.604891300201416016e+00,5.233724594116210938e+00,7.010222434997558594e+00,-5.950927734375000000e+00,1.182556152343750000e+00,-4.760742187500000000e+00
1.188931155204772949e+01,-3.248931646347045898e+00,5.233724594116210938e+00,7.010222434997558594e+00,-7.324218750000000000e-01,-8.544921875000000000e-01,-2.517700195312500000e-01
1.189963984489440918e+01,-3.248931646347045898e+00,6.050147533416748047e+00,7.098807811737060547e+00,9.567260742187500000e+00,-3.494262695312500000e+00,4.455566406250000000e+00
1.191374611854553223e+01,-3.368641853332519531e+00,6.050147533416748047e+00,8.339004516601562500e+00,9.567260742187500000e+00,-3.494262695312500000e+00,4.455566406250000000e+00
1.192786335945129395e+01,-3.368641853332519531e+00,5.573701381683349609e+00,8.339004516601562500e+00,-4.676818847656250000e+00,-3.479003906250000000e+00,-4.699707031250000000e+00
1.194116663932800293e+01,-3.277662038803100586e+00,5.439626216888427734e+00,6.962338447570800781e+00,-7.377624511718750000e+00,2.143859863281250000e+00,-4.699707031250000000e+00
1.195316314697265625e+01,-3.277662038803100586e+00,5.099649429321289062e+00,6.902483463287353516e+00,-4.676818847656250000e+00,-3.479003906250000000e+00,-3.288269042968750000e+00
1.197022438049316406e+01,-3.392583847045898438e+00,5.099649429321289062e+00,6.902483463287353516e+00,1.000213623046875000e+01,-3.730773925781250000e+00,4.699707031250000000e+00
1.198287367820739746e+01,-3.720589399337768999e+00,6.543353080749511719e+00,8.561665534973144531e+00,1.000213623046875000e+01,-3.730773925781250000e+00,4.699707031250000000e+00
1.199439954757690430e+01,-3.392583847045898438e+00,6.543353080749511719e+00,8.561665534973144531e+00,-2.037048339843750000e+00,1.739501953125000000e+00,-6.553649902343750000e+00
1.201244258880615234e+01,-2.932897090911864790e+00,5.410895824432373047e+00,8.030152320861816406e+00,-4.585266113281250000e+00,2.426147460937500000e+00,-6.553649902343750000e+00
1.202316904067993164e+01,-2.827552080154418945e+00,4.903325080871582031e+00,6.754043102264404297e+00,-4.585266113281250000e+00,2.426147460937500000e+00,-3.379821777343750000e+00
1.203742814064025879e+01,-2.492363929748535156e+00,4.903325080871582031e+00,6.754043102264404297e+00,2.098083496093750000e+00,4.249572753906250000e+00,2.990722656250000000e+00
1.204909658432006836e+01,-2.492363929748535156e+00,5.578489780426025391e+00,8.032546997070312500e+00,4.554748535156250000e+00,-3.662109375000000000e-01,4.539489746093750000e+00
1.206381320953369141e+01,-3.588908195495605025e+00,6.100425720214843750e+00,8.169015884399414062e+00,3.524780273437500000e+00,-5.439758300781250000e+00,4.539489746093750000e+00
1.207931041717529297e+01,-3.588908195495605025e+00,6.100425720214843750e+00,8.032546997070312500e+00,3.524780273437500000e+00,-5.439758300781250000e+00,-4.554748535156250000e+00
1.209101796150207520e+01,-2.815581083297729048e+00,5.975927352905273438e+00,7.929595947265625000e+00,-1.991271972656250000e+00,4.074096679687500000e+00,-4.554748535156250000e+00
1.210633540153503418e+01,-2.813186883926392046e+00,4.678269863128662109e+00,6.991068840026856357e+00,-2.220153808593750000e+00,4.074096679687500000e+00,-4.119873046875000000e+00
1.212163305282592773e+01,-2.638410329818725586e+00,4.678269863128662109e+00,6.991068840026856357e+00,-2.220153808593750000e+00,3.318786621093750000e+00,1.861572265625000000e+00
1.213260555267333984e+01,-2.813186883926392046e+00,5.710170745849609375e+00,7.462726593017578125e+00,4.371643066406250000e+00,9.078979492187500000e-01,5.683898925781250000e+00
1.214492988586425781e+01,-3.423708438873291016e+00,6.071695327758789062e+00,7.879317760467529297e+00,4.371643066406250000e+00,-1.319885253906250000e+00,5.683898925781250000e+00
1.216036701202392578e+01,-3.521870613098144531e+00,6.071695327758789062e+00,7.879317760467529297e+00,1.167297363281250000e+00,-1.319885253906250000e+00,-5.088806152343750000e+00
1.217520451545715332e+01,-3.521870613098144531e+00,5.667075157165527344e+00,7.556100368499755859e+00,1.167297363281250000e+00,-1.319885253906250000e+00,-5.088806152343750000e+00
1.218773126602172852e+01,-2.779668092727661133e+00,5.667075157165527344e+00,7.556100368499755859e+00,5.645751953125000000e-01,2.769470214843750000e+00,9.613037109375000000e-01
1.220198392868041992e+01,-2.779668092727661133e+00,5.961562156677246094e+00,8.010998725891113281e+00,5.645751953125000000e-01,1.213073730468750000e+00,9.613037109375000000e-01
1.221381521224975586e+01,-2.887407302856445312e+00,5.961562156677246094e+00,8.010998725891113281e+00,-2.929687500000000000e+00,1.213073730468750000e+00,1.220703125000000000e-01
1.222947263717651367e+01,-2.887407302856445312e+00,5.643133163452148438e+00,7.592013359069824219e+00,-3.593444824218750000e+00,1.213073730468750000e+00,-2.182006835937500000e+00
1.224105000495910645e+01,-2.887407302856445312e+00,5.386953830718994141e+00,7.165845394134521484e+00,-3.593444824218750000e+00,1.525878906250000000e-01,-2.182006835937500000e+00
1.225634479522705078e+01,-3.095702648162841797e+00,5.386953830718994141e+00,7.165845394134521484e+00,4.150390625000000000e+00,1.525878906250000000e-01,1.502990722656250000e+00
1.227036118507385254e+01,-3.095702648162841797e+00,5.406107425689697266e+00,7.647079944610595703e+00,4.150390625000000000e+00,-1.419067382812500000e+00,1.502990722656250000e+00
1.228354620933532715e+01,-3.169923067092895508e+00,5.597643375396728516e+00,7.730876922607421875e+00,3.890991210937500000e+00,-1.419067382812500000e+00,1.983642578125000000e-01
