# elapsed time, f3_acc_x, f3_acc_y, f3_acc_z, f3_gyro_x, f3_gyro_y, f3_gyro_z
5.871105909347534180e+00,4.764461219310759943e-01,-1.003888797760009766e+01,-5.985504016280170092e-02,-3.631591796875000000e+00,4.501342773437500000e-01,1.449584960937500000e-01
5.883244991302490234e+00,4.764461219310759943e-01,-1.002931118011474609e+01,-1.675941236317150113e-02,-3.654479980468750000e+00,-1.144409179687500000e-01,3.509521484375000000e-01
5.897544384002685547e+00,4.764461219310759943e-01,-1.002931118011474609e+01,5.267243832349770283e-02,-3.654479980468750000e+00,-7.629394531250000000e-02,4.348754882812500000e-01
5.908976078033447266e+00,4.716577231884002130e-01,-1.008198356628417969e+01,-1.675941236317150113e-02,-3.654479980468750000e+00,-1.983642578125000000e-01,4.348754882812500000e-01
5.924090623855590820e+00,4.333505034446715753e-01,-1.008198356628417969e+01,-4.788403213024129690e-02,-3.746032714843750000e+00,-7.629394531250000000e-02,4.348754882812500000e-01
5.940176963806152344e+00,3.974374830722808838e-01,-9.983820915222167969e+00,-1.005564704537390969e-01,-3.692626953125000000e+00,7.629394531250000000e-02,3.738403320312500000e-01
5.952610969543457031e+00,3.567360341548919123e-01,-9.974244117736816406e+00,-1.005564704537390969e-01,-3.799438476562500000e+00,7.629394531250000000e-02,3.738403320312500000e-01
5.966536998748779297e+00,3.567360341548919123e-01,-9.974244117736816406e+00,-1.005564704537390969e-01,-4.104614257812500000e+00,-2.517700195312500000e-01,5.950927734375000000e-01
5.978765964508056641e+00,4.501098990440368097e-01,-1.001973438262939631e+01,-2.873042039573190168e-02,-4.104614257812500000e+00,-2.517700195312500000e-01,6.866455078125000000e-01
5.994416236877441406e+00,4.501098990440368097e-01,-1.002212810516357422e+01,-2.873042039573190168e-02,-3.768920898437500000e+00,-1.907348632812500000e-01,7.095336914062500000e-01
6.005149602890014648e+00,4.501098990440368097e-01,-1.001973438262939631e+01,-2.873042039573190168e-02,-3.768920898437500000e+00,-1.907348632812500000e-01,7.629394531250000000e-01
6.020962715148925781e+00,3.974374830722808838e-01,-1.002212810516357422e+01,-7.182605098932899959e-03,-3.746032714843750000e+00,-1.907348632812500000e-01,7.247924804687500000e-01
6.035255908966064453e+00,3.878606557846068781e-01,-1.002691650390625000e+01,-7.182605098932899959e-03,-3.280639648437500000e+00,-3.662109375000000000e-01,7.629394531250000000e-01
6.048652410507202148e+00,3.878606557846068781e-01,-1.006043529510498047e+01,6.224924325942989695e-02,-3.280639648437500000e+00,-4.577636718750000000e-01,7.247924804687500000e-01
6.062763452529907227e+00,4.860229492187500000e-01,-1.007480049133300781e+01,5.267243832349770283e-02,-3.555297851562500000e+00,-4.577636718750000000e-01,7.858276367187500000e-01
6.075098514556884766e+00,4.860229492187500000e-01,-1.006043529510498047e+01,5.267243832349770283e-02,-3.791809082031250000e+00,2.517700195312500000e-01,6.027221679687500000e-01
6.090431213378906250e+00,4.453215003013610840e-01,-1.007240676879882812e+01,1.915361359715459996e-02,-3.791809082031250000e+00,2.517700195312500000e-01,5.874633789062500000e-01
6.100985050201416016e+00,4.453215003013610840e-01,-1.007240676879882812e+01,-8.858545869588850541e-02,-3.707885742187500000e+00,-9.155273437500000000e-02,5.874633789062500000e-01
6.115246772766113281e+00,4.620809257030487061e-01,-1.010592555999756037e+01,-9.576806798577299981e-03,-3.616333007812500000e+00,-9.155273437500000000e-02,7.553100585937500000e-01
6.132177114486694336e+00,4.716577231884002130e-01,-1.010592555999756037e+01,-2.873042039573190168e-02,-3.410339355468750000e+00,-2.136230468750000000e-01,7.553100585937500000e-01
6.143744468688964844e+00,4.740519225597381037e-01,-1.006043529510498047e+01,-2.873042039573190168e-02,-3.616333007812500000e+00,-2.288818359375000000e-01,7.553100585937500000e-01
6.157799959182739258e+00,4.740519225597381037e-01,-1.003649330139160156e+01,-2.873042039573190168e-02,-3.639221191406250000e+00,-2.288818359375000000e-01,8.010864257812500000e-01
6.172682285308837891e+00,4.716577231884002130e-01,-1.001733970642089844e+01,-6.703764945268629594e-02,-3.723144531250000000e+00,-2.288818359375000000e-01,8.010864257812500000e-01
6.185103416442871094e+00,4.548983275890349787e-01,-1.001733970642089844e+01,-1.723825186491012018e-01,-4.180908203125000000e+00,-1.144409179687500000e-01,9.002685546875000000e-01
6.197738409042358398e+00,3.974374830722808838e-01,-9.904811859130859375e+00,-1.723825186491012018e-01,-4.180908203125000000e+00,-4.730224609375000000e-01,9.002685546875000000e-01
6.215317010879516602e+00,3.926490843296051025e-01,-9.904811859130859375e+00,-1.651999205350875022e-01,-3.990173339843750000e+00,-1.014709472656250000e+00,1.152038574218750000e+00
6.226154804229736328e+00,3.974374830722808838e-01,-9.837774276733398438e+00,-6.703764945268629594e-02,-3.990173339843750000e+00,-1.647949218750000000e+00,2.395629882812500000e+00
6.239659070968627930e+00,3.926490843296051025e-01,-9.816226959228515625e+00,-1.651999205350875022e-01,-3.990173339843750000e+00,-1.647949218750000000e+00,2.395629882812500000e+00
6.256999969482421875e+00,-3.663128614425659180e-01,-9.639056205749511719e+00,-6.703764945268629594e-02,-5.393981933593750000e+00,4.501342773437500000e-01,1.548767089843750000e+00
6.267991781234741211e+00,-3.663128614425659180e-01,-9.639056205749511719e+00,-3.758896589279174805e-01,-4.661560058593750000e+00,4.501342773437500000e-01,-3.280639648437500000e-01
6.282128095626831055e+00,8.595184087753295898e-01,-9.983820915222167969e+00,3.040636181831359863e-01,-4.661560058593750000e+00,4.501342773437500000e-01,7.019042968750000000e-01
6.296151876449584961e+00,8.595184087753295898e-01,-1.036210441589355646e+01,-4.572925269603729248e-01,-4.661560058593750000e+00,-5.340576171875000000e-01,7.019042968750000000e-01
6.308754205703735352e+00,-4.070142656564709749e-02,-9.983820915222167969e+00,-4.070142656564709749e-02,-4.211425781250000000e+00,-1.541137695312500000e+00,7.019042968750000000e-01
6.320751667022705078e+00,-1.699883192777633112e-01,-1.001733970642089844e+01,-4.572925269603729248e-01,-4.211425781250000000e+00,-1.541137695312500000e+00,-2.670288085937500000e-01
6.338017702102661133e+00,-1.699883192777633112e-01,-9.955090522766111505e+00,-4.070142656564709749e-02,-4.211425781250000000e+00,1.327514648437500000e+00,-3.684997558593750000e+00
6.351304531097412109e+00,5.003881454467773438e-01,-1.001733970642089844e+01,-2.873041927814483087e-01,-3.181457519531250000e+00,1.327514648437500000e+00,-3.684997558593750000e+00
6.363208532333374023e+00,6.703764796257019043e-01,-9.952695846557615411e+00,-1.197100803256029994e-02,-3.890991210937500000e+00,-9.460449218750000000e-01,5.577087402343750000e+00
6.380700826644897461e+00,6.703764796257019043e-01,-9.873687744140623224e+00,1.508347094058989923e-01,-3.890991210937500000e+00,-3.257751464843750000e+00,5.577087402343750000e+00
6.391350507736206055e+00,0.000000000000000000e+00,-9.873687744140623224e+00,1.508347094058989923e-01,-5.645751953125000000e+00,-3.257751464843750000e+00,5.249023437500000000e+00
6.404457330703735352e+00,0.000000000000000000e+00,-9.902418136596679688e+00,-5.985504016280170092e-02,-6.004333496093750000e+00,2.822875976562500000e-01,-2.395629882812500000e+00
6.419451475143432617e+00,5.698199868202209473e-01,-9.991003990173339844e+00,-3.974374830722808838e-01,-6.004333496093750000e+00,2.822875976562500000e-01,-2.395629882812500000e+00
6.431482791900634766e+00,5.698199868202209473e-01,-9.991003990173339844e+00,-3.591302633285521906e-01,-4.074096679687500000e+00,6.866455078125000000e-02,-1.083374023437500000e+00
6.446751117706298828e+00,6.344634294509887695e-01,-9.991003990173339844e+00,-3.591302633285521906e-01,-4.074096679687500000e+00,-1.159667968750000000e+00,3.570556640625000000e+00
6.458458185195922852e+00,2.657563984394072931e-01,-9.878476142883300781e+00,-3.280056416988372803e-01,-2.677917480468750000e+00,-1.243591308593750000e+00,4.341125488281250000e+00
6.473631381988525391e+00,4.692635238170623779e-01,-9.366116523742675781e+00,-6.464344263076779451e-02,-4.348754882812500000e+00,-2.700805664062500000e+00,4.341125488281250000e+00
6.486376285552978516e+00,4.692635238170623779e-01,-9.366116523742675781e+00,-6.464344263076779451e-02,-5.599975585937500000e+00,-4.318237304687500000e+00,5.828857421875000000e+00
6.501224279403686523e+00,4.692635238170623779e-01,-9.981427192687988281e+00,-1.795651316642760953e-01,-6.629943847656250000e+00,-2.700805664062500000e+00,3.128051757812500000e+00
6.515954971313476562e+00,5.434837937355041504e-01,-9.981427192687988281e+00,-1.795651316642760953e-01,-6.629943847656250000e+00,-2.929687500000000000e+00,5.828857421875000000e+00
6.527753114700317383e+00,3.878606557846068781e-01,-9.861716270446775567e+00,-1.101332753896712979e-01,-6.607055664062500000e+00,-2.929687500000000000e+00,7.011413574218750000e+00
6.543818235397338867e+00,9.816227108240120625e-02,-9.718064308166503906e+00,-8.140285313129419498e-02,-6.607055664062500000e+00,-2.929687500000000000e+00,7.011413574218750000e+00
6.554599285125732422e+00,9.816227108240120625e-02,-9.718064308166503906e+00,-1.101332753896712979e-01,-9.414672851562500000e+00,-4.486083984375000000e+00,5.668640136718750000e+00
6.569140672683715820e+00,3.160346150398253839e-01,-9.955090522766111505e+00,-5.075707435607910156e-01,-9.414672851562500000e+00,-2.105712890625000000e+00,5.043029785156250000e+00
6.582110404968261719e+00,5.291185379028320312e-01,-9.955090522766111505e+00,-5.075707435607910156e-01,-7.789611816406250000e+00,-3.669738769531250000e+00,5.668640136718750000e+00
6.596405267715454102e+00,9.959878921508787952e-01,-9.955090522766111505e+00,-3.758896589279174805e-01,-7.789611816406250000e+00,-3.669738769531250000e+00,7.003784179687500000e+00
6.609172344207763672e+00,9.959878921508787952e-01,-1.000297451019287287e+01,-3.758896589279174805e-01,-8.758544921875000000e+00,-7.400512695312500000e+00,1.795959472656250000e+01
6.623456001281738281e+00,6.464344263076782227e-01,-1.002452278137207031e+01,-5.075707435607910156e-01,-9.025573730468750000e+00,-1.293945312500000000e+01,1.930236816406250000e+01
6.637883424758911133e+00,2.154781520366667869e-01,-1.002452278137207031e+01,-5.075707435607910156e-01,-9.513854980468750000e+00,-1.293945312500000000e+01,1.930236816406250000e+01
6.651107549667358398e+00,9.097966551780700684e-02,-9.900023460388183594e+00,-4.788403213024138849e-01,-9.513854980468750000e+00,-6.645202636718750000e+00,9.216308593750000000e+00
6.665581941604614258e+00,2.154781520366667869e-01,-9.900023460388183594e+00,-1.795651316642760953e-01,-9.643554687500000000e+00,-5.569458007812500000e+00,9.216308593750000000e+00
6.678441286087036133e+00,9.097966551780700684e-02,-9.993397712707519531e+00,-1.795651316642760953e-01,-9.643554687500000000e+00,-5.569458007812500000e+00,1.235198974609375000e+01
6.693054676055908203e+00,2.059013396501541138e-01,-9.993397712707519531e+00,1.436520963907240989e-01,-1.480102539062500000e+01,-5.569458007812500000e+00,1.235198974609375000e+01
6.704679489135742188e+00,5.746084079146380336e-02,-9.789890289306640625e+00,-2.106897532939910889e-01,-1.480102539062500000e+01,-1.892089843750000000e+00,7.667541503906250000e+00
6.720614910125732422e+00,2.059013396501541138e-01,-9.701305389404296875e+00,7.350199222564697266e-01,-1.480102539062500000e+01,-1.892089843750000000e+00,7.667541503906250000e+00
6.731589317321777344e+00,1.915361359715459996e-02,-9.660603523254396308e+00,-2.705447971820830744e-01,-1.879882812500000000e+01,-4.806518554687500000e-01,1.055908203125000000e+01
6.747492790222167969e+00,-7.829039692878723145e-01,-9.660603523254396308e+00,-7.948749661445617676e-01,-1.879882812500000000e+01,-1.008605957031250000e+01,1.282501220703125000e+01
6.762537002563476562e+00,-7.829039692878723145e-01,-9.775525093078611505e+00,-7.948749661445617676e-01,-1.858520507812500000e+01,-5.737304687500000000e+00,1.282501220703125000e+01
6.773509740829467773e+00,1.077390760183333934e-01,-9.950302124023437500e+00,-1.103726983070373535e+00,-1.858520507812500000e+01,-5.737304687500000000e+00,1.282501220703125000e+01
6.788753271102905273e+00,4.955997467041015070e-01,-1.018014526367187678e+01,-7.805097699165344238e-01,-1.947021484375000000e+01,-5.737304687500000000e+00,1.136016845703125000e+01
6.802957057952880859e+00,1.077390760183333934e-01,-1.018014526367187678e+01,-8.355763554573059082e-01,-1.947021484375000000e+01,-1.281738281250000000e+00,9.719848632812500000e+00
6.815615177154541016e+00,-1.628057062625885010e-01,-9.931148529052734375e+00,-7.805097699165344238e-01,-1.342010498046875000e+01,5.645751953125000000e-01,1.136016845703125000e+01
6.827555656433105469e+00,-5.123591423034667969e-01,-9.931148529052734375e+00,-8.355763554573059082e-01,-1.342010498046875000e+01,5.645751953125000000e-01,1.327514648437500000e+01
6.845095872879028320e+00,-7.422025203704833984e-01,-9.763554573059082031e+00,-5.578489899635314941e-01,-2.165222167968750000e+01,5.218505859375000000e+00,1.327514648437500000e+01
6.855648994445800781e+00,-9.409212470054626465e-01,-9.952695846557615411e+00,-1.276109457015991211e+00,-2.165222167968750000e+01,-1.098632812500000000e+00,9.307861328125000000e+00
6.870101213455200195e+00,-7.422025203704833984e-01,-9.952695846557615411e+00,-5.578489899635314941e-01,-2.165222167968750000e+01,4.348754882812500000e+00,8.453369140625000000e+00
6.884154319763183594e+00,-7.876923680305480957e-01,-9.952695846557615411e+00,-1.276109457015991211e+00,-2.033996582031250000e+01,-1.098632812500000000e+00,8.453369140625000000e+00
6.896474361419677734e+00,-7.876923680305480957e-01,-9.071630477905271661e+00,-2.825157940387725830e-01,1.642608642578125000e+01,4.348754882812500000e+00,3.051757812500000000e+00
6.908701896667480469e+00,-7.876923680305480957e-01,-3.598484992980957031e+00,1.163581967353820801e+00,3.333282470703125000e+01,-1.001739501953125000e+01,3.051757812500000000e+00
6.926208257675170898e+00,7.278373241424559659e+00,-3.598484992980957031e+00,4.529829502105712891e+00,7.522583007812500000e+01,7.559967041015625000e+01,-9.674072265625000000e+01
6.939696311950683594e+00,7.278373241424559659e+00,-2.997540473937988281e+00,4.529829502105712891e+00,7.522583007812500000e+01,7.559967041015625000e+01,-8.704376220703125000e+01
6.950303077697753906e+00,2.391807556152344194e+00,-1.232774448394775391e+01,1.961270141601562500e+01,7.812500000000000000e+01,7.559967041015625000e+01,-8.704376220703125000e+01
6.970734119415283203e+00,2.391807556152344194e+00,-1.961330032348632812e+01,1.961270141601562500e+01,7.812500000000000000e+01,-8.528137207031250000e+01,-8.704376220703125000e+01
6.982172489166259766e+00,8.870516777038574219e+00,-1.961330032348632812e+01,-1.707065773010253906e+01,-5.651855468750000000e+01,-8.528137207031250000e+01,-5.423736572265625000e+01
6.992613554000854492e+00,8.870516777038574219e+00,-1.961330032348632812e+01,-1.707065773010253906e+01,-5.651855468750000000e+01,1.255264282226562358e+02,-8.978271484375000000e+01
7.009972810745239258e+00,4.479551315307617188e+00,-1.763329505920410156e+01,-1.707065773010253906e+01,-4.679107666015625000e+01,1.255264282226562358e+02,5.500030517578125000e+01
7.020692348480224609e+00,-7.072471618652343750e+00,-5.736507415771484375e+00,-2.762908697128295898e+00,-1.950073242187500000e+01,4.183197021484375000e+01,-8.786010742187500000e+01
7.035101413726806641e+00,4.479551315307617188e+00,-1.275151824951172053e+01,4.788403399288599684e-03,-1.950073242187500000e+01,-3.803253173828125000e+01,3.345489501953125000e+01
7.049280405044555664e+00,2.102108955383300781e+00,-1.085770416259765625e+01,4.788403399288599684e-03,-1.601409912109375000e+01,1.345825195312500000e+01,-1.524353027343750000e+01
7.061507940292358398e+00,2.571372509002685103e+00,-1.244745445251464844e+01,4.788403399288599684e-03,-1.384735107421875000e+01,1.136779785156250000e+00,2.843475341796875000e+01
7.073941946029663086e+00,2.102108955383300781e+00,-1.085770416259765625e+01,6.607996821403503418e-01,-4.562377929687500000e+00,1.136779785156250000e+00,5.393981933593750000e+00
7.089015722274780273e+00,-1.508347094058989923e-01,-1.076433086395263672e+01,6.607996821403503418e-01,3.196716308593750000e+00,-6.637573242187500000e-01,5.393981933593750000e+00
7.100957870483398438e+00,-1.843535304069519043e-01,-1.056321811676025391e+01,-7.661445140838623047e-01,3.196716308593750000e+00,-6.637573242187500000e-01,-4.188537597656250000e+00
7.115604400634765625e+00,-1.508347094058989923e-01,-1.056321811676025391e+01,-7.661445140838623047e-01,-3.723144531250000000e+00,-5.798339843750000000e+00,-4.188537597656250000e+00
7.130898237228393555e+00,2.743755102157592773e+00,-1.018253993988037287e+01,-6.272808313369750977e-01,-3.723144531250000000e+00,8.880615234375000000e+00,-8.201599121093750000e+00
7.142543792724609375e+00,2.743755102157592773e+00,-9.114726066589355469e+00,1.053448766469955028e-01,-3.723144531250000000e+00,-6.034851074218750000e+00,1.400756835937500000e+01
7.157068014144897461e+00,-8.690952062606811523e-01,-9.114726066589355469e+00,1.053448766469955028e-01,-7.331848144531250000e+00,3.631591796875000000e+00,-1.464843750000000000e+00
7.169547557830810547e+00,-1.589749932289123535e+00,-1.069489860534667969e+01,-1.582567334175110085e+00,-7.331848144531250000e+00,-1.205444335937500000e+00,-1.464843750000000000e+00
7.185470342636108398e+00,-1.589749932289123535e+00,-1.069489860534667969e+01,-1.582567334175110085e+00,-2.899169921875000000e-01,8.392333984375000000e-01,-8.720397949218750000e+00
7.199868679046630859e+00,1.781286001205444336e+00,-1.026154804229736328e+01,6.560112833976745605e-01,-2.899169921875000000e-01,8.392333984375000000e-01,-8.720397949218750000e+00
7.211143016815185547e+00,1.781286001205444336e+00,-1.026154804229736328e+01,6.560112833976745605e-01,-2.777099609375000000e+00,8.544921875000000000e-01,4.638671875000000000e+00
7.226116657257080078e+00,1.695094823837280495e+00,-1.057279491424560369e+01,1.268926858901976984e-01,-4.829406738281250000e+00,8.544921875000000000e-01,4.776000976562500000e+00
7.238842010498046875e+00,-8.810662031173706055e-01,-1.057279491424560369e+01,1.268926858901976984e-01,-4.829406738281250000e+00,6.332397460937500000e-01,4.776000976562500000e+00
7.253408908843994141e+00,-8.810662031173706055e-01,-9.914388656616212714e+00,6.440402269363403320e-01,-4.425048828125000000e-01,3.890991210937500000e-01,-9.346008300781250000e+00
7.265228986740112305e+00,6.057330369949340820e-01,-9.914388656616212714e+00,6.440402269363403320e-01,-4.425048828125000000e-01,1.525878906250000000e-01,-9.346008300781250000e+00
7.280683279037475586e+00,1.685518026351928711e+00,-1.006043529510498047e+01,-1.268926858901976984e-01,-4.745483398437500000e+00,1.525878906250000000e-01,2.319335937500000000e+00
7.292686223983764648e+00,1.685518026351928711e+00,-1.033098030090332031e+01,-3.064578175544738770e-01,-4.745483398437500000e+00,-1.564025878906250000e+00,7.690429687500000000e+00
7.308050394058227539e+00,-8.068459630012512207e-01,-1.033098030090332031e+01,-3.064578175544738770e-01,-4.104614257812500000e+00,1.632690429687500000e+00,7.690429687500000000e+00
7.322231531143188477e+00,-8.068459630012512207e-01,-1.011310768127441406e+01,3.208230137825012207e-01,-4.035949707031250000e+00,-1.197814941406250000e+00,-7.514953613281250000e+00
7.335218191146850586e+00,1.197100803256034018e-01,-1.011310768127441406e+01,3.208230137825012207e-01,-3.692626953125000000e+00,1.892089843750000000e+00,-7.514953613281250000e+00
7.350711822509765625e+00,1.192312479019165039e+00,-1.027830791473388850e+01,0.000000000000000000e+00,-3.692626953125000000e+00,-1.197814941406250000e+00,-3.494262695312500000e+00
7.365389585494995117e+00,1.192312479019165039e+00,-1.027830791473388850e+01,0.000000000000000000e+00,-3.692626953125000000e+00,-1.312255859375000000e+00,7.087707519531250000e+00
7.376698255538940430e+00,5.291185379028320312e-01,-9.864110946655271661e+00,-3.112462162971489990e-02,-4.585266113281250000e+00,-1.312255859375000000e+00,7.087707519531250000e+00
7.392677783966064453e+00,4.932055473327636164e-01,-9.864110946655271661e+00,-3.112462162971489990e-02,-4.585266113281250000e+00,9.689331054687500000e-01,-3.692626953125000000e+00
7.403724908828735352e+00,4.932055473327636164e-01,-1.003409957885742188e+01,-3.327940404415130060e-01,-9.841918945312500000e-01,9.689331054687500000e-01,-4.974365234375000000e+00
7.419626712799072266e+00,1.561019539833068848e+00,-1.003409957885742188e+01,-3.327940404415130060e-01,-9.841918945312500000e-01,8.621215820312500000e-01,-4.974365234375000000e+00
7.432192325592041016e+00,1.561019539833068848e+00,-1.003409957885742188e+01,2.035071402788161954e-01,-4.150390625000000000e+00,8.621215820312500000e-01,6.324768066406250000e+00
7.446474313735961914e+00,6.105214357376098633e-01,-1.051772785186767578e+01,2.035071402788161954e-01,-4.150390625000000000e+00,8.621215820312500000e-01,6.324768066406250000e+00
7.460830688476562500e+00,-5.147533416748046875e-01,-1.051772785186767578e+01,-1.197100803256029994e-02,-3.700256347656250000e+00,-1.258850097656250000e+00,5.332946777343750000e+00
7.475337743759155273e+00,-5.147533416748046875e-01,-1.026873111724853516e+01,-1.197100803256029994e-02,-2.319335937500000000e+00,-1.258850097656250000e+00,-3.196716308593750000e+00
7.488462686538696289e+00,7.445967197418212891e-01,-9.904811859130859375e+00,7.110778689384460449e-01,-2.319335937500000000e+00,2.746582031250000000e-01,-3.196716308593750000e+00
7.499557018280029297e+00,1.036689281463623047e+00,-9.904811859130859375e+00,7.110778689384460449e-01,-3.639221191406250000e+00,2.746582031250000000e-01,-1.724243164062500000e+00
7.516936302185058594e+00,1.036689281463623047e+00,-1.025675964355468750e+01,4.309562966227530045e-02,-6.286621093750000000e+00,-5.111694335937500000e-01,1.020812988281250000e+01
7.527693986892700195e+00,-6.536170244216918945e-01,-1.028549003601074219e+01,4.309562966227530045e-02,-6.286621093750000000e+00,-5.111694335937500000e-01,1.020812988281250000e+01
7.542446851730346680e+00,-6.536170244216918945e-01,-1.028549003601074219e+01,2.633621916174879937e-02,-1.640319824218750000e+00,2.288818359375000000e-02,-7.194519042968750000e+00
7.556223392486572266e+00,1.604115068912506104e-01,-1.028549003601074219e+01,2.633621916174879937e-02,-1.640319824218750000e+00,2.288818359375000000e-02,-7.194519042968750000e+00
7.569466114044189453e+00,1.752555608749389648e+00,-1.028070163726806641e+01,2.633621916174879937e-02,-3.303527832031250000e+00,2.288818359375000000e-02,-2.494812011718750000e+00
7.583199739456176758e+00,1.752555608749389648e+00,-1.029985523223876953e+01,-9.576806798577299981e-03,-4.592895507812500000e+00,8.392333984375000000e-01,6.576538085937500000e+00
7.598220348358154297e+00,2.178723514080047052e-01,-1.046026706695556641e+01,1.197100803256034018e-01,-3.303527832031250000e+00,1.022338867187500000e+00,6.576538085937500000e+00
7.610729932785034180e+00,1.795651316642760953e-01,-1.046026706695556641e+01,9.337386488914489746e-02,-2.967834472656250000e+00,1.022338867187500000e+00,-1.777648925781250000e+00
7.622739791870117188e+00,1.795651316642760953e-01,-1.001733970642089844e+01,9.337386488914489746e-02,-2.967834472656250000e+00,-8.468627929687500000e-01,-6.141662597656250000e+00
7.639563560485839844e+00,1.778891801834106445e+00,-1.001733970642089844e+01,9.337386488914489746e-02,-4.180908203125000000e+00,-8.468627929687500000e-01,-6.141662597656250000e+00
7.652913808822631836e+00,1.778891801834106445e+00,-1.016817474365234375e+01,1.604115068912506104e-01,-4.211425781250000000e+00,1.274108886718750000e+00,4.478454589843750000e+00
7.664249658584594727e+00,6.296750307083129883e-01,-1.034295082092285156e+01,1.604115068912506104e-01,-4.211425781250000000e+00,1.274108886718750000e+00,4.692077636718750000e+00
7.682287931442260742e+00,-4.501098990440368097e-01,-1.035971069335937678e+01,-1.268926858901976984e-01,-4.211425781250000000e+00,-9.918212890625000000e-02,4.692077636718750000e+00
7.693492650985717773e+00,-4.501098990440368097e-01,-1.035971069335937678e+01,-1.268926858901976984e-01,-2.609252929687500000e+00,-9.918212890625000000e-02,-6.309509277343750000e+00
7.707119941711425781e+00,1.328781962394714355e+00,-1.028070163726806641e+01,9.576806798577299981e-03,-2.029418945312500000e+00,1.754760742187500000e-01,-6.309509277343750000e+00
7.720344066619873047e+00,1.328781962394714355e+00,-1.011550235748291016e+01,4.118026793003082275e-01,-2.029418945312500000e+00,4.196166992187500000e-01,2.136230468750000000e+00
