# elapsed time, f2_acc_x, f2_acc_y, f2_acc_z, f2_gyro_x, f2_gyro_y, f2_gyro_z
8.693971157073974609e+00,-2.042253971099853072e+00,-5.542576789855957031e+00,7.927201747894287109e+00,2.746582031250000000e-01,3.204345703125000000e-01,-1.983642578125000000e-01
8.706008672714233398e+00,-1.948880195617676003e+00,-5.542576789855957031e+00,7.934384346008300781e+00,2.746582031250000000e-01,3.204345703125000000e-01,-7.629394531250000000e-02
8.719516754150390625e+00,-1.948880195617676003e+00,-5.499481201171875000e+00,7.934384346008300781e+00,3.280639648437500000e-01,2.441406250000000000e-01,-2.288818359375000000e-02
8.733531236648559570e+00,-1.934514999389648438e+00,-5.468356609344482422e+00,7.917624950408934659e+00,3.204345703125000000e-01,4.653930664062500000e-01,-2.288818359375000000e-02
8.749176740646362305e+00,-1.896207690238952859e+00,-5.485116004943847656e+00,7.917624950408934659e+00,3.280639648437500000e-01,1.525878906250000000e-01,-2.288818359375000000e-02
8.760642290115356445e+00,-1.896207690238952859e+00,-5.468356609344482422e+00,7.917624950408934659e+00,3.814697265625000000e-01,-1.144409179687500000e-01,7.629394531250000000e-02
8.775524854660034180e+00,-1.965639591217041016e+00,-5.485116004943847656e+00,7.908048152923583984e+00,3.814697265625000000e-01,-1.144409179687500000e-01,7.629394531250000000e-02
8.787993907928466797e+00,-1.996764183044433594e+00,-5.506663799285888672e+00,7.898471355438232422e+00,2.136230468750000000e-01,1.373291015625000000e-01,-1.754760742187500000e-01
8.803327560424804688e+00,-1.996764183044433594e+00,-5.523423194885253906e+00,7.898471355438232422e+00,2.136230468750000000e-01,1.373291015625000000e-01,-1.754760742187500000e-01
8.815036058425903320e+00,-1.968033790588378906e+00,-5.523423194885253906e+00,8.044517517089843750e+00,2.746582031250000000e-01,2.822875976562500000e-01,-1.754760742187500000e-01
8.829775094985961914e+00,-1.968033790588378906e+00,-5.439626216888427734e+00,8.044517517089843750e+00,2.746582031250000000e-01,2.822875976562500000e-01,4.577636718750000000e-02
8.844946861267089844e+00,-1.987187385559082031e+00,-5.439626216888427734e+00,7.891288757324218750e+00,1.144409179687500000e-01,2.822875976562500000e-01,-9.918212890625000000e-02
8.856454849243164062e+00,-1.987187385559082031e+00,-5.516240596771240234e+00,7.891288757324218750e+00,1.144409179687500000e-01,2.670288085937500000e-01,-9.918212890625000000e-02
8.871671199798583984e+00,-1.972822189331054910e+00,-5.521028995513916016e+00,7.931990146636962891e+00,1.678466796875000000e-01,9.155273437500000000e-02,-2.288818359375000000e-01
8.884310960769653320e+00,-1.972822189331054910e+00,-5.523423194885253906e+00,7.982268333435058594e+00,2.365112304687500000e-01,9.155273437500000000e-02,-2.288818359375000000e-01
8.898536443710327148e+00,-1.991975784301757590e+00,-5.521028995513916016e+00,7.967903137207031250e+00,1.678466796875000000e-01,9.155273437500000000e-02,-9.155273437500000000e-02
8.913267850875854492e+00,-1.999158382415771706e+00,-5.523423194885253906e+00,7.967903137207031250e+00,1.296997070312500000e-01,-1.296997070312500000e-01,-3.814697265625000000e-02
8.926168918609619141e+00,-2.011129379272460938e+00,-5.568912982940673828e+00,7.893682956695556641e+00,1.296997070312500000e-01,-1.296997070312500000e-01,-3.814697265625000000e-02
8.941312789916992188e+00,-2.011129379272460938e+00,-5.568912982940673828e+00,7.893682956695556641e+00,1.296997070312500000e-01,-1.296997070312500000e-01,-2.365112304687500000e-01
8.952417373657226562e+00,-2.042253971099853072e+00,-5.556941986083984375e+00,7.893682956695556641e+00,4.043579101562500000e-01,-2.059936523437500000e-01,-2.365112304687500000e-01
8.967802286148071289e+00,-2.042253971099853072e+00,-5.430049419403076172e+00,7.888894557952880859e+00,4.043579101562500000e-01,-2.059936523437500000e-01,-2.975463867187500000e-01
8.979563713073730469e+00,-2.087743759155272993e+00,-5.430049419403076172e+00,7.812280178070068359e+00,4.043579101562500000e-01,-2.059936523437500000e-01,-2.593994140625000000e-01
8.995506048202514648e+00,-2.087743759155272993e+00,-5.492298603057861328e+00,7.888894557952880859e+00,2.746582031250000000e-01,1.068115234375000000e-01,-2.593994140625000000e-01
9.006578445434570312e+00,-2.039859771728516069e+00,-5.513846397399902344e+00,7.943961143493652344e+00,2.746582031250000000e-01,2.517700195312500000e-01,1.525878906250000000e-02
9.022087335586547852e+00,-2.035071372985839844e+00,-5.513846397399902344e+00,7.943961143493652344e+00,5.340576171875000000e-02,2.517700195312500000e-01,1.068115234375000000e-01
9.034326791763305664e+00,-2.039859771728516069e+00,-5.513846397399902344e+00,7.896077156066894531e+00,-3.890991210937500000e-01,2.517700195312500000e-01,1.068115234375000000e-01
9.048385381698608398e+00,-2.035071372985839844e+00,-5.523423194885253906e+00,7.841010570526123047e+00,-4.119873046875000000e-01,4.577636718750000000e-02,2.746582031250000000e-01
9.060868263244628906e+00,-2.023100376129150391e+00,-5.528211593627929688e+00,7.841010570526123047e+00,-1.037597656250000000e+00,-5.340576171875000000e-02,1.068115234375000000e-01
9.076329946517944336e+00,-1.994369983673095925e+00,-5.528211593627929688e+00,7.841010570526123047e+00,-1.037597656250000000e+00,-3.890991210937500000e-01,-8.392333984375000000e-02
9.087870836257934570e+00,-1.968033790588378906e+00,-5.425261020660400391e+00,7.838616371154785156e+00,-1.060485839843750000e+00,-1.670837402343750000e+00,-8.392333984375000000e-02
9.103724002838134766e+00,-1.968033790588378906e+00,-5.425261020660400391e+00,7.838616371154785156e+00,-9.613037109375000000e-01,-2.601623535156250000e+00,-8.392333984375000000e-02
9.120482206344604492e+00,-2.061407566070556641e+00,-5.439626216888427734e+00,7.838616371154785156e+00,-1.144409179687500000e-01,-3.707885742187500000e+00,8.697509765625000000e-01
9.130778074264526367e+00,-2.061407566070556641e+00,-5.439626216888427734e+00,7.948749542236328125e+00,1.434326171875000000e+00,-6.164550781250000000e+00,4.119873046875000000e-01
9.144035339355468750e+00,-2.207453966140747070e+00,-5.408501625061035156e+00,7.797914981842041016e+00,3.929138183593750000e+00,-8.758544921875000000e+00,9.994506835937500000e-01
9.158802509307861328e+00,-1.924938082695007546e+00,-5.408501625061035156e+00,7.582436561584472656e+00,6.675720214843750000e+00,-1.443481445312500000e+01,2.555847167968750000e+00
9.171576976776123047e+00,-2.324769735336304155e+00,-5.415684223175048828e+00,7.345410823822020596e+00,1.271820068359375000e+01,-1.443481445312500000e+01,2.777099609375000000e+00
9.487182855606079102e+00,-2.039859771728516069e+00,-5.415684223175048828e+00,7.345410823822020596e+00,1.271820068359375000e+01,-3.517150878906250000e+00,6.301879882812500000e+00
9.702338695526123047e+00,-2.039859771728516069e+00,-4.311957359313964844e+00,9.232041358947753906e+00,-1.229858398437500000e+01,-3.517150878906250000e+00,1.816558837890625000e+01
9.715435266494750977e+00,-2.039859771728516069e+00,-4.311957359313964844e+00,9.232041358947753906e+00,-1.835632324218750000e+01,-3.517150878906250000e+00,6.301879882812500000e+00
9.725972652435302734e+00,-3.780444383621215820e+00,-4.513070106506347656e+00,9.232041358947753906e+00,-1.835632324218750000e+01,-4.669189453125000000e+00,3.944396972656250000e+00
9.743862152099609375e+00,-3.780444383621215820e+00,-5.549759387969970703e+00,7.304709434509277344e+00,-1.802825927734375000e+01,-6.332397460937500000e-01,-5.744934082031250000e+00
9.754280090332031250e+00,-7.852981686592102051e-01,-5.195417404174804688e+00,7.422025203704833984e+00,-1.789855957031250000e+01,-6.332397460937500000e-01,-1.808166503906250000e+00
9.768236875534057617e+00,-7.852981686592102051e-01,-5.195417404174804688e+00,7.422025203704833984e+00,-1.789855957031250000e+01,-6.332397460937500000e-01,-1.808166503906250000e+00
9.786480426788330078e+00,-2.274491548538208008e+00,-4.987122058868408203e+00,8.037335395812988281e+00,-1.741027832031250000e+01,-1.594543457031250000e+00,2.059936523437500000e-01
9.797236680984497070e+00,-2.274491548538208008e+00,-4.987122058868408203e+00,8.066065788269042969e+00,-1.637268066406250000e+01,-1.594543457031250000e+00,1.251220703125000000e+00
9.810544013977050781e+00,-2.274491548538208008e+00,-4.692635059356689453e+00,8.037335395812988281e+00,-1.046752929687500000e+01,5.264282226562500000e+00,2.059936523437500000e-01
9.824710130691528320e+00,-1.874659895896912065e+00,-5.461174011230468750e+00,8.066065788269042969e+00,-1.046752929687500000e+01,5.264282226562500000e+00,-2.494812011718750000e+00
9.838125467300415039e+00,-2.477998733520507812e+00,-4.826710700988769531e+00,7.745242595672607422e+00,-1.247406005859375000e+01,1.335144042968750000e+00,-2.494812011718750000e+00
9.849135875701904297e+00,-2.477998733520507812e+00,-5.355829238891601562e+00,8.889670372009277344e+00,-1.501464843750000000e+01,1.335144042968750000e+00,-8.163452148437500000e-01
9.866825580596923828e+00,-2.576160907745361328e+00,-5.355829238891601562e+00,6.995857238769531250e+00,-1.428985595703125000e+01,1.655578613281250000e+00,-7.629394531250000000e-02
9.880251646041870117e+00,-2.576160907745361328e+00,-5.623979568481445312e+00,6.995857238769531250e+00,-1.966094970703125000e+01,1.655578613281250000e+00,4.409790039062500000e+00
9.892431259155273438e+00,-2.688688516616821289e+00,-5.623979568481445312e+00,6.995857238769531250e+00,-1.683807373046875000e+01,1.655578613281250000e+00,-7.629394531250000000e-02
9.906376600265502930e+00,-1.549048423767089844e+00,-5.489904403686523438e+00,7.721300125122070312e+00,-1.793670654296875000e+01,4.005432128906250000e+00,6.378173828125000000e+00
9.919261455535888672e+00,-1.889025092124938965e+00,-5.437232017517089844e+00,8.516175270080566406e+00,-1.793670654296875000e+01,4.005432128906250000e+00,7.064819335937500000e+00
9.933756351470947266e+00,-1.889025092124938965e+00,-5.293580055236816406e+00,8.516175270080566406e+00,-1.882171630859375000e+01,2.349853515625000000e+00,7.064819335937500000e+00
9.946101665496826172e+00,-1.889025092124938965e+00,-5.293580055236816406e+00,8.841786384582519531e+00,-3.292846679687500000e+01,-3.463745117187500000e+00,-7.255554199218750000e+00
9.960552215576171875e+00,-3.134010076522827148e+00,-5.341464042663574219e+00,8.051700592041015625e+00,-3.292846679687500000e+01,-5.691528320312500000e+00,-7.255554199218750000e+00
9.972953557968139648e+00,-2.731784105300903764e+00,-6.339846134185791016e+00,5.904101371765136719e+00,-1.536560058593750000e+01,-1.820373535156250000e+01,-4.280090332031250000e+00
9.987544775009155273e+00,-2.731784105300903764e+00,-6.339846134185791016e+00,5.904101371765136719e+00,-3.158569335937500000e+00,-3.270721435546875000e+01,-2.716064453125000000e+00
1.000307559967041016e+01,-1.357512354850769043e+00,-5.487510204315185547e+00,5.904101371765136719e+00,-2.281188964843750000e+00,-3.270721435546875000e+01,1.926422119140625000e+01
1.001408505439758301e+01,-1.357512354850769043e+00,-5.487510204315185547e+00,5.597643375396728516e+00,1.099395751953125000e+01,-3.270721435546875000e+01,2.349090576171875000e+01
1.002978563308715820e+01,-1.357512354850769043e+00,-9.270348548889160156e+00,5.597643375396728516e+00,1.928176879882812500e+02,3.356933593750000000e-01,1.926422119140625000e+01
1.004182171821594238e+01,-1.731007814407348633e+00,-9.270348548889160156e+00,4.168304920196533203e+00,1.928176879882812500e+02,-5.926513671875000000e+01,2.349090576171875000e+01
1.005677938461303711e+01,-1.731007814407348633e+00,-3.502717018127441406e+00,1.001733970642089844e+01,1.928176879882812500e+02,1.838684082031250000e+01,6.683349609375000000e+00
1.006881546974182129e+01,-8.240841865539550781e+00,-3.502717018127441406e+00,4.168304920196533203e+00,2.224731445312500000e+02,4.105377197265625000e+01,-8.206176757812500000e+01
1.008497858047485352e+01,-8.240841865539550781e+00,-5.583278179168701172e+00,-6.775590896606445312e+00,2.253112792968750000e+02,4.105377197265625000e+01,-8.206176757812500000e+01
1.009534811973571777e+01,-8.240841865539550781e+00,-1.086728096008300781e+01,-6.775590896606445312e+00,2.224731445312500000e+02,-5.004119873046875000e+01,-6.330871582031250000e+01
1.011038112640380859e+01,6.943184733390808105e-01,-5.583278179168701172e+00,-2.451662540435791016e+00,7.373809814453125000e+01,-1.408843994140625000e+02,6.077575683593750000e+01
1.012643718719482422e+01,-1.961330032348632812e+01,-8.604761123657226562e+00,3.280056238174438477e+00,7.373809814453125000e+01,-1.408843994140625000e+02,6.077575683593750000e+01
1.013722491264343262e+01,3.694253206253052202e+00,-6.399701118469238281e+00,3.280056238174438477e+00,7.373809814453125000e+01,4.720306396484375000e+01,-5.493164062500000000e+01
1.015270614624023438e+01,1.867477297782897949e-01,-6.399701118469238281e+00,3.280056238174438477e+00,6.460571289062500000e+01,4.720306396484375000e+01,-5.493164062500000000e+01
1.016538619995117188e+01,1.867477297782897949e-01,-4.876988887786865234e+00,1.159033012390136719e+01,4.094696044921875000e+01,-5.699157714843750000e+00,-1.128387451171875000e+01
1.017979907989501953e+01,1.867477297782897949e-01,3.931279182434082031e+00,1.859337043762207031e+01,2.423858642578125000e+01,-5.699157714843750000e+00,-1.128387451171875000e+01
1.019139909744262695e+01,8.738836050033569336e-01,3.931279182434082031e+00,1.859337043762207031e+01,1.267242431640625000e+01,-1.815795898437500000e+01,1.488494873046875000e+01
1.020748496055603027e+01,8.738836050033569336e-01,-1.443703651428222878e+00,1.181059646606445135e+01,-5.706787109375000000e+00,-1.591491699218750000e+01,1.488494873046875000e+01
1.021926474571228027e+01,-5.621585369110107422e+00,-2.894589900970458984e+00,8.583212852478027344e+00,-2.273559570312500000e+00,-1.591491699218750000e+01,1.488494873046875000e+01
1.023389077186584473e+01,-5.621585369110107422e+00,-2.908955097198486328e+00,7.931990146636962891e+00,-2.273559570312500000e+00,7.904052734375000000e+00,-9.803771972656250000e+00
1.025141835212707520e+01,-2.509123325347900391e+00,-2.894589900970458984e+00,7.931990146636962891e+00,-1.907348632812500000e-01,7.904052734375000000e+00,-1.166534423828125000e+01
1.026206207275390625e+01,3.591302409768099696e-02,-9.313444495201111950e-01,9.148244857788085938e+00,6.942749023437500000e+00,3.913879394531250000e+00,-1.166534423828125000e+01
1.027603673934936523e+01,3.591302409768099696e-02,2.274491637945174893e-01,9.935936927795410156e+00,6.942749023437500000e+00,1.914978027343750000e+00,2.906799316406250000e+00
1.029021573066711426e+01,-5.602431893348693848e-01,2.274491637945174893e-01,1.024000072479248047e+01,-3.471374511718750000e+00,4.653930664062500000e-01,6.187438964843750000e+00
1.030294036865234375e+01,-2.398990154266357422e+00,-1.556231021881103516e+00,1.024000072479248047e+01,-3.471374511718750000e+00,4.653930664062500000e-01,6.187438964843750000e+00
1.031438159942626953e+01,-2.398990154266357422e+00,-2.705447912216186523e+00,9.794678688049316406e+00,-2.113342285156250000e+00,-2.395629882812500000e+00,-1.625061035156250000e+00
1.033210110664367676e+01,-1.644816517829895020e+00,-2.705447912216186523e+00,9.794678688049316406e+00,6.843566894531250000e+00,-5.416870117187500000e-01,-2.182006835937500000e+00
1.034268593788146973e+01,-1.505952835083007812e+00,-9.385270476341247559e-01,1.103248119354248047e+01,6.843566894531250000e+00,-1.083374023437500000e+00,-1.625061035156250000e+00
1.035834145545959473e+01,-1.472434043884277122e+00,-9.385270476341247559e-01,1.103248119354248047e+01,-3.921508789062500000e+00,-5.416870117187500000e-01,1.426696777343750000e+00
1.037418723106384277e+01,-1.472434043884277122e+00,-2.176329374313354492e+00,9.311050415039062500e+00,-3.921508789062500000e+00,1.602172851562500000e-01,1.426696777343750000e+00
1.038517904281616211e+01,-1.771709203720092773e+00,-3.059789657592772993e+00,8.520963668823242188e+00,-3.433227539062500000e+00,1.602172851562500000e-01,1.220703125000000000e+00
1.039820671081542969e+01,-1.771709203720092773e+00,-3.059789657592772993e+00,8.520963668823242188e+00,6.652832031250000000e+00,1.602172851562500000e-01,-7.095336914062500000e-01
1.041330933570861816e+01,-1.206677675247192383e+00,-2.157175779342651811e+00,9.679757118225097656e+00,6.652832031250000000e+00,-1.365661621093750000e+00,-7.858276367187500000e-01
1.042864346504211426e+01,-1.206677675247192383e+00,-1.558625221252441406e+00,1.045787239074707031e+01,2.349853515625000000e+00,3.204345703125000000e-01,-7.858276367187500000e-01
1.043830585479736328e+01,-1.470039844512939675e+00,-1.558625221252441406e+00,1.045787239074707031e+01,-3.616333007812500000e+00,-1.365661621093750000e+00,1.167297363281250000e+00
1.045539808273315430e+01,-2.087743759155272993e+00,-2.700659513473510742e+00,9.174580574035644531e+00,-3.616333007812500000e+00,-8.544921875000000000e-01,1.167297363281250000e+00
1.046605587005615234e+01,-2.087743759155272993e+00,-2.700659513473510742e+00,9.138668060302734375e+00,1.853942871093750000e+00,-1.663208007812500000e+00,-1.548767089843750000e+00
1.047907066345214844e+01,-1.628057122230529785e+00,-2.157175779342651811e+00,9.138668060302734375e+00,2.967834472656250000e+00,-8.544921875000000000e-01,-2.799987792968750000e+00
1.049394655227661133e+01,-1.003170490264892578e+00,-1.374271750450134499e+00,1.004607009887695135e+01,2.967834472656250000e+00,-5.874633789062500000e-01,-1.548767089843750000e+00
1.050655436515808105e+01,-1.003170490264892578e+00,-1.374271750450134499e+00,1.004607009887695135e+01,-1.686096191406250000e+00,-8.392333984375000000e-02,1.022338867187500000e+00
1.052204608917236328e+01,-1.714248418807983398e+00,-1.817199110984802468e+00,9.485827445983888495e+00,-1.686096191406250000e+00,-5.874633789062500000e-01,1.022338867187500000e+00
1.053372144699096680e+01,-1.714248418807983398e+00,-1.817199110984802468e+00,9.289502143859863281e+00,-2.975463867187500000e-01,5.645751953125000000e-01,-8.926391601562500000e-01
1.054939126968383789e+01,-1.683123707771301270e+00,-1.709460020065307617e+00,9.289502143859863281e+00,2.998352050781250000e+00,-7.629394531250000000e-03,-8.926391601562500000e-01
1.056088113784790039e+01,-1.163581967353820801e+00,-1.149216771125793679e+00,9.679757118225097656e+00,2.998352050781250000e+00,5.798339843750000000e-01,-8.392333984375000000e-01
1.057591271400451660e+01,-1.163581967353820801e+00,-1.149216771125793679e+00,1.003409957885742188e+01,1.602172851562500000e-01,4.348754882812500000e-01,1.220703125000000000e+00
1.058793306350708008e+01,-1.970427989959716797e+00,-1.290474653244018555e+00,1.003409957885742188e+01,-2.502441406250000000e+00,4.501342773437500000e-01,1.220703125000000000e+00
1.060272097587585449e+01,-1.970427989959716797e+00,-2.276885747909545898e+00,9.449913978576660156e+00,-2.502441406250000000e+00,4.348754882812500000e-01,1.205444335937500000e+00
1.061432623863220215e+01,-1.968033790588378906e+00,-2.276885747909545898e+00,9.449913978576660156e+00,1.731872558593750000e+00,-5.569458007812500000e-01,-1.831054687500000000e-01
1.063004565238952637e+01,-1.656787514686584473e+00,-1.905784487724303977e+00,9.914388656616212714e+00,1.731872558593750000e+00,-5.569458007812500000e-01,-1.831054687500000000e-01
