# elapsed time, f3_acc_x, f3_acc_y, f3_acc_z, f3_gyro_x, f3_gyro_y, f3_gyro_z
1.314868927001953125e+01,4.580107688903808594e+00,-8.504204750061035156e+00,2.310404539108276367e+00,-3.417968750000000000e+00,-2.288818359375000000e-02,5.798339843750000000e-01
1.315881562232971191e+01,4.580107688903808594e+00,-8.504204750061035156e+00,2.363076925277709961e+00,-3.540039062500000000e+00,3.051757812500000000e-02,5.111694335937500000e-01
1.317519021034240723e+01,4.596867084503173828e+00,-8.537723541259765625e+00,2.413355350494384766e+00,-3.540039062500000000e+00,3.051757812500000000e-02,5.798339843750000000e-01
1.319069147109985352e+01,4.596867084503173828e+00,-8.537723541259765625e+00,2.413355350494384766e+00,-3.654479980468750000e+00,3.051757812500000000e-02,5.874633789062500000e-01
1.320096921920776367e+01,4.604049682617188388e+00,-8.513781547546386719e+00,2.413355350494384766e+00,-3.654479980468750000e+00,7.629394531250000000e-02,6.027221679687500000e-01
1.321722078323364258e+01,4.594472885131835938e+00,-8.513781547546386719e+00,2.379836559295654297e+00,-3.654479980468750000e+00,7.629394531250000000e-02,6.027221679687500000e-01
1.323186087608337402e+01,4.604049682617188388e+00,-8.513781547546386719e+00,2.379836559295654297e+00,-3.684997558593750000e+00,1.678466796875000000e-01,6.256103515625000000e-01
1.324332427978515625e+01,4.604049682617188388e+00,-8.552088737487792969e+00,2.401384353637695757e+00,-3.684997558593750000e+00,1.678466796875000000e-01,5.264282226562500000e-01
1.325726842880249023e+01,4.604049682617188388e+00,-8.568847656250000000e+00,2.425326347351074219e+00,-3.578186035156250000e+00,1.525878906250000000e-02,6.256103515625000000e-01
1.327246737480163574e+01,4.599261283874511719e+00,-8.568847656250000000e+00,2.401384353637695757e+00,-3.555297851562500000e+00,1.525878906250000000e-02,6.332397460937500000e-01
1.328565335273742676e+01,4.572925090789794922e+00,-8.513781547546386719e+00,2.312798738479614258e+00,-3.555297851562500000e+00,1.525878906250000000e-02,6.637573242187500000e-01
1.329792332649230957e+01,4.537012100219726562e+00,-8.487444877624511719e+00,2.303221940994262695e+00,-3.646850585937500000e+00,7.629394531250000000e-03,6.790161132812500000e-01
1.331494188308715820e+01,4.572925090789794922e+00,-8.487444877624511719e+00,2.312798738479614258e+00,-3.707885742187500000e+00,7.629394531250000000e-03,6.790161132812500000e-01
1.332754683494567871e+01,4.537012100219726562e+00,-8.497021675109863281e+00,2.401384353637695757e+00,-3.654479980468750000e+00,-1.831054687500000000e-01,5.798339843750000000e-01
1.333986806869506836e+01,4.527435302734375000e+00,-8.501810073852539062e+00,2.401384353637695757e+00,-3.692626953125000000e+00,9.918212890625000000e-02,5.798339843750000000e-01
1.335725951194763184e+01,4.527435302734375000e+00,-8.544905662536621094e+00,2.391807556152344194e+00,-3.654479980468750000e+00,-1.296997070312500000e-01,7.019042968750000000e-01
1.336868667602539062e+01,4.575319290161132812e+00,-8.544905662536621094e+00,2.355894327163696289e+00,-3.601074218750000000e+00,-1.296997070312500000e-01,7.019042968750000000e-01
1.338160467147827148e+01,4.584896087646484375e+00,-8.530540466308593750e+00,2.336740732192993164e+00,-3.601074218750000000e+00,-3.204345703125000000e-01,7.247924804687500000e-01
1.340177488327026367e+01,4.584896087646484375e+00,-8.530540466308593750e+00,2.336740732192993164e+00,-3.540039062500000000e+00,-3.204345703125000000e-01,7.247924804687500000e-01
1.341234540939331055e+01,4.611232280731201172e+00,-8.556877136230468750e+00,2.377442359924316406e+00,-3.463745117187500000e+00,-2.136230468750000000e-01,7.705688476562500000e-01
1.342316317558288574e+01,4.625597476959228516e+00,-8.556877136230468750e+00,2.384624958038330078e+00,-3.440856933593750000e+00,-2.059936523437500000e-01,7.705688476562500000e-01
1.343780827522277832e+01,4.625597476959228516e+00,-8.542511940002441406e+00,2.377442359924316406e+00,-3.440856933593750000e+00,-2.136230468750000000e-01,6.484985351562500000e-01
1.344962787628173828e+01,4.608838081359863281e+00,-8.542511940002441406e+00,2.384624958038330078e+00,-3.479003906250000000e+00,-1.296997070312500000e-01,6.484985351562500000e-01
1.346196579933166504e+01,4.594472885131835938e+00,-8.571242332458496094e+00,2.348711729049682617e+00,-3.570556640625000000e+00,-1.602172851562500000e-01,6.790161132812500000e-01
1.347986006736755371e+01,4.584896087646484375e+00,-8.571242332458496094e+00,2.348711729049682617e+00,-3.570556640625000000e+00,-1.296997070312500000e-01,6.866455078125000000e-01
1.349035167694091797e+01,4.584896087646484375e+00,-8.571242332458496094e+00,2.343923330307006836e+00,-3.616333007812500000e+00,-1.602172851562500000e-01,7.171630859375000000e-01
1.350435304641723633e+01,4.616020679473876953e+00,-8.571242332458496094e+00,2.343923330307006836e+00,-3.646850585937500000e+00,-1.144409179687500000e-01,7.171630859375000000e-01
1.351931357383728027e+01,4.647145271301269531e+00,-8.571242332458496094e+00,2.410961151123046875e+00,-3.654479980468750000e+00,-1.144409179687500000e-01,7.171630859375000000e-01
1.353160881996154785e+01,4.647145271301269531e+00,-8.516175270080566406e+00,2.410961151123046875e+00,-3.723144531250000000e+00,7.629394531250000000e-02,8.087158203125000000e-01
1.354674935340881348e+01,4.637568473815917969e+00,-8.516175270080566406e+00,2.367865324020385742e+00,-3.723144531250000000e+00,7.629394531250000000e-02,8.087158203125000000e-01
1.355887699127197266e+01,4.546588897705078125e+00,-8.451531410217285156e+00,2.339134931564331055e+00,-3.639221191406250000e+00,1.373291015625000000e-01,6.790161132812500000e-01
1.357472348213195801e+01,4.637568473815917969e+00,-8.470685005187988281e+00,2.339134931564331055e+00,-3.639221191406250000e+00,1.449584960937500000e-01,6.256103515625000000e-01
1.358576273918151855e+01,4.565742492675781250e+00,-8.470685005187988281e+00,2.391807556152344194e+00,-3.662109375000000000e+00,1.525878906250000000e-01,5.950927734375000000e-01
1.360059881210327148e+01,4.661510467529296875e+00,-8.506598472595214844e+00,2.391807556152344194e+00,-3.707885742187500000e+00,1.449584960937500000e-01,4.653930664062500000e-01
1.361220598220825195e+01,4.661510467529296875e+00,-8.513781547546386719e+00,2.384624958038330078e+00,-3.746032714843750000e+00,4.577636718750000000e-02,2.899169921875000000e-01
1.362695145606994629e+01,4.661510467529296875e+00,-8.513781547546386719e+00,2.384624958038330078e+00,-3.746032714843750000e+00,4.577636718750000000e-02,2.136230468750000000e-01
1.364015936851501465e+01,4.639962673187255859e+00,-8.487444877624511719e+00,2.384624958038330078e+00,-3.562927246093750000e+00,1.983642578125000000e-01,2.899169921875000000e-01
1.365429282188415527e+01,4.632780075073242188e+00,-8.461108207702636719e+00,2.375048160552978516e+00,-3.486633300781250000e+00,1.983642578125000000e-01,3.738403320312500000e-01
1.366979336738586426e+01,4.632780075073242188e+00,-8.420407295227050781e+00,2.331952333450317383e+00,-3.562927246093750000e+00,2.365112304687500000e-01,3.967285156250000000e-01
1.368137812614440918e+01,4.632780075073242188e+00,-8.360551834106445312e+00,2.375048160552978516e+00,-3.578186035156250000e+00,6.866455078125000000e-02,6.637573242187500000e-01
1.369733214378356934e+01,4.613626480102539062e+00,-8.360551834106445312e+00,2.403778553009033203e+00,-3.784179687500000000e+00,6.866455078125000000e-02,6.637573242187500000e-01
1.370984768867492676e+01,4.673481464385986328e+00,-8.489839553833007812e+00,2.403778553009033203e+00,-3.578186035156250000e+00,-2.593994140625000000e-01,8.697509765625000000e-01
1.372290706634521484e+01,4.589684486389160156e+00,-8.520963668823242188e+00,2.403778553009033203e+00,-3.570556640625000000e+00,-6.866455078125000000e-01,8.697509765625000000e-01
1.373631668090820312e+01,4.675875663757324219e+00,-8.597578048706054688e+00,2.410961151123046875e+00,-3.402709960937500000e+00,-6.866455078125000000e-01,6.637573242187500000e-01
1.375070786476135254e+01,4.606443881988525391e+00,-8.520963668823242188e+00,2.410961151123046875e+00,-3.402709960937500000e+00,-6.866455078125000000e-01,2.670288085937500000e-01
1.376255726814270020e+01,4.606443881988525391e+00,-8.463502883911132812e+00,2.327163934707641602e+00,-3.517150878906250000e+00,-2.670288085937500000e-01,2.365112304687500000e-01
1.377850365638732910e+01,4.587290287017822266e+00,-8.362946510314941406e+00,2.291250944137572798e+00,-3.738403320312500000e+00,-7.095336914062500000e-01,2.365112304687500000e-01
1.379030251502990723e+01,4.558559894561767578e+00,-8.377311706542968750e+00,2.260126352310180664e+00,-3.738403320312500000e+00,-2.670288085937500000e-01,2.365112304687500000e-01
1.380432367324829102e+01,4.558559894561767578e+00,-8.377311706542968750e+00,2.260126352310180664e+00,-3.791809082031250000e+00,6.866455078125000000e-01,-5.264282226562500000e-01
1.382059788703918457e+01,4.558559894561767578e+00,-8.377311706542968750e+00,2.351105928421020508e+00,-3.479003906250000000e+00,6.866455078125000000e-01,-5.264282226562500000e-01
1.383112978935241699e+01,4.522646903991699219e+00,-8.408435821533203125e+00,2.353500127792358398e+00,-3.944396972656250000e+00,-5.340576171875000000e-02,7.400512695312500000e-01
1.384570312500000000e+01,4.560954093933105469e+00,-8.408435821533203125e+00,2.351105928421020508e+00,-3.479003906250000000e+00,-8.926391601562500000e-01,8.392333984375000000e-01
1.386058282852172852e+01,4.728548049926757812e+00,-8.628703117370605469e+00,2.353500127792358398e+00,-4.112243652343750000e+00,-5.340576171875000000e-02,3.616333007812500000e+00
1.387325215339660645e+01,4.728548049926757812e+00,-8.647856712341308594e+00,1.999158382415771706e+00,-4.470825195312500000e+00,-2.853393554687500000e+00,3.616333007812500000e+00
1.388603401184082031e+01,4.335899353027343750e+00,-8.647856712341308594e+00,2.425326347351074219e+00,-4.539489746093750000e+00,1.266479492187500000e+00,2.624511718750000000e+00
1.390292572975158691e+01,4.335899353027343750e+00,-8.731653213500976562e+00,2.109291553497314453e+00,-4.539489746093750000e+00,-2.853393554687500000e+00,-1.533508300781250000e+00
1.391352105140686035e+01,5.018246650695800781e+00,-8.513781547546386719e+00,2.355894327163696289e+00,-2.342224121093750000e+00,-1.449584960937500000e+00,-1.533508300781250000e+00
1.392770910263061523e+01,5.018246650695800781e+00,-8.717288017272949219e+00,2.109291553497314453e+00,-2.342224121093750000e+00,-1.449584960937500000e+00,2.601623535156250000e+00
1.394238734245300293e+01,4.539406299591064453e+00,-8.425195693969726562e+00,2.355894327163696289e+00,-3.471374511718750000e+00,-1.449584960937500000e+00,2.601623535156250000e+00
1.395502066612243652e+01,4.355052947998046875e+00,-8.453926086425781250e+00,2.288856744766235796e+00,-3.807067871093750000e+00,-1.235961914062500000e+00,1.869201660156250000e+00
1.396712064743041992e+01,4.355052947998046875e+00,-8.394070625305175781e+00,2.288856744766235796e+00,-3.807067871093750000e+00,-2.319335937500000000e+00,2.517700195312500000e-01
1.398417305946350098e+01,4.355052947998046875e+00,-8.434772491455078125e+00,2.288856744766235796e+00,-1.838684082031250000e+00,-2.647399902343750000e+00,1.869201660156250000e+00
1.399607467651367188e+01,4.786009311676025391e+00,-8.219294548034667969e+00,2.059013366699218750e+00,-1.838684082031250000e+00,-2.647399902343750000e+00,2.998352050781250000e+00
1.400890564918518066e+01,4.786009311676025391e+00,-8.434772491455078125e+00,2.293645143508911133e+00,-2.502441406250000000e+00,-2.647399902343750000e+00,3.250122070312500000e+00
1.402676486968994141e+01,4.606443881988525391e+00,-8.523358345031738281e+00,2.274491548538208008e+00,-3.196716308593750000e+00,-3.051757812500000000e+00,4.638671875000000000e+00
1.403800725936889648e+01,4.587290287017822266e+00,-8.542511940002441406e+00,2.274491548538208008e+00,-3.593444824218750000e+00,-3.051757812500000000e+00,4.638671875000000000e+00
1.405107069015502930e+01,4.587290287017822266e+00,-8.568847656250000000e+00,2.274491548538208008e+00,-3.593444824218750000e+00,-3.051757812500000000e+00,3.890991210937500000e+00
1.406750607490539551e+01,4.587290287017822266e+00,-8.568847656250000000e+00,2.262520551681518555e+00,-2.792358398437500000e+00,-1.159667968750000000e+00,2.685546875000000000e+00
1.407774162292480469e+01,4.812345504760742188e+00,-8.425195693969726562e+00,2.384624958038330078e+00,-2.540588378906250000e+00,-3.311157226562500000e+00,3.890991210937500000e+00
1.409260869026184082e+01,4.812345504760742188e+00,-8.425195693969726562e+00,2.245761156082153320e+00,-2.510070800781250000e+00,-2.845764160156250000e+00,4.028320312500000000e+00
1.410674285888671875e+01,4.774038314819335938e+00,-8.271966934204101562e+00,2.276885747909545898e+00,-2.426147460937500000e+00,-2.845764160156250000e+00,4.028320312500000000e+00
1.411984014511108398e+01,4.774038314819335938e+00,-8.497021675109863281e+00,2.276885747909545898e+00,-2.510070800781250000e+00,-2.662658691406250000e+00,4.508972167968750000e+00
1.413139557838439941e+01,4.659116268157958984e+00,-8.523358345031738281e+00,2.566584110260009766e+00,-2.357482910156250000e+00,-2.662658691406250000e+00,4.524230957031250000e+00
1.414631915092468262e+01,4.525041103363037109e+00,-8.523358345031738281e+00,2.566584110260009766e+00,-2.914428710937500000e+00,-3.150939941406250000e+00,4.524230957031250000e+00
1.416132092475891113e+01,4.525041103363037109e+00,-8.647856712341308594e+00,2.473210334777832031e+00,-2.189636230468750000e+00,-4.035949707031250000e+00,2.937316894531250000e+00
1.417335677146911621e+01,4.608838081359863281e+00,-8.554482460021972656e+00,2.406172752380371094e+00,-2.265930175781250000e+00,-3.150939941406250000e+00,2.937316894531250000e+00
1.418941950798034668e+01,4.790797710418701172e+00,-8.554482460021972656e+00,2.473210334777832031e+00,-2.189636230468750000e+00,-4.035949707031250000e+00,3.616333007812500000e+00
1.420010948181152344e+01,4.790797710418701172e+00,-8.554482460021972656e+00,2.492363929748535156e+00,-2.265930175781250000e+00,-3.509521484375000000e-01,3.616333007812500000e+00
1.421526217460632324e+01,4.273650169372558594e+00,-8.245630264282226562e+00,2.626439332962036133e+00,-4.150390625000000000e+00,1.991271972656250000e+00,4.882812500000000000e-01
1.422783470153808594e+01,4.129997730255126953e+00,-8.595184326171875000e+00,2.492363929748535156e+00,-4.707336425781250000e+00,1.991271972656250000e+00,-1.335144042968750000e+00
1.424309158325195312e+01,4.273650169372558594e+00,-8.583212852478027344e+00,2.094926357269287109e+00,-4.150390625000000000e+00,1.571655273437500000e+00,-1.335144042968750000e+00
1.425557255744934082e+01,4.400542736053466797e+00,-8.583212852478027344e+00,2.094926357269287109e+00,-4.707336425781250000e+00,1.571655273437500000e+00,-1.296997070312500000e-01
1.427028417587280273e+01,4.400542736053466797e+00,-8.583212852478027344e+00,2.094926357269287109e+00,-4.547119140625000000e+00,1.571655273437500000e+00,1.663208007812500000e+00
1.428382873535156250e+01,4.400542736053466797e+00,-8.621520042419433594e+00,1.917755484580993652e+00,-4.714965820312500000e+00,1.983642578125000000e+00,-1.296997070312500000e-01
1.429608917236328125e+01,4.424484729766845703e+00,-8.621520042419433594e+00,1.917755484580993652e+00,-4.547119140625000000e+00,1.754760742187500000e-01,-1.449584960937500000e-01
1.431208395957946777e+01,4.424484729766845703e+00,-8.621520042419433594e+00,2.114079952239990234e+00,-4.768371582031250000e+00,2.548217773437500000e+00,-1.449584960937500000e-01
1.432419443130493164e+01,4.424484729766845703e+00,-8.465896606445312500e+00,2.300827741622924805e+00,-3.845214843750000000e+00,1.914978027343750000e+00,5.340576171875000000e-02
1.433804059028625488e+01,4.410119533538818359e+00,-8.532935142517089844e+00,2.375048160552978516e+00,-3.845214843750000000e+00,1.914978027343750000e+00,5.340576171875000000e-02
1.435446691513061523e+01,4.481945514678955078e+00,-8.508993148803710938e+00,2.396595954895019531e+00,-3.845214843750000000e+00,1.914978027343750000e+00,-1.831054687500000000e-01
1.436598277091979980e+01,4.481945514678955078e+00,-8.508993148803710938e+00,2.375048160552978516e+00,-3.807067871093750000e+00,1.716613769531250000e+00,-1.983642578125000000e-01
1.438085150718688965e+01,4.723759651184082031e+00,-8.508993148803710938e+00,2.229001760482788086e+00,-4.165649414062500000e+00,1.716613769531250000e+00,-1.983642578125000000e-01
1.439344906806945801e+01,4.723759651184082031e+00,-8.595184326171875000e+00,2.229001760482788086e+00,-3.807067871093750000e+00,1.029968261718750000e+00,4.425048828125000000e-01
1.440802717208862305e+01,4.730942249298095703e+00,-8.595184326171875000e+00,2.331952333450317383e+00,-4.386901855468750000e+00,1.029968261718750000e+00,4.425048828125000000e-01
1.442229938507080078e+01,4.898536682128906250e+00,-8.477868080139160156e+00,2.331952333450317383e+00,-4.852294921875000000e+00,2.624511718750000000e+00,-3.890991210937500000e-01
1.443479514122009277e+01,4.898536682128906250e+00,-8.477868080139160156e+00,2.322375535964965820e+00,-4.852294921875000000e+00,2.624511718750000000e+00,-3.890991210937500000e-01
1.445045018196105957e+01,4.774038314819335938e+00,-8.281543731689453125e+00,2.200271368026733398e+00,-5.111694335937500000e+00,2.624511718750000000e+00,-2.250671386718750000e+00
1.446187424659729004e+01,4.453215122222900391e+00,-8.190564155578613281e+00,2.322375535964965820e+00,-4.585266113281250000e+00,2.395629882812500000e+00,-1.403808593750000000e+00
1.447703886032104492e+01,4.453215122222900391e+00,-8.190564155578613281e+00,2.363076925277709961e+00,-4.585266113281250000e+00,2.395629882812500000e+00,-1.403808593750000000e+00
1.448996925354003906e+01,4.144362926483154297e+00,-8.305485725402832031e+00,2.619256734848022461e+00,-4.585266113281250000e+00,2.395629882812500000e+00,-5.340576171875000000e-02
1.450358772277832031e+01,3.821145772933959961e+00,-8.494627952575683594e+00,2.619256734848022461e+00,-4.653930664062500000e+00,2.975463867187500000e+00,-5.340576171875000000e-02
1.451584315299987793e+01,3.775655984878540039e+00,-8.518569946289062500e+00,2.564189910888671875e+00,-4.653930664062500000e+00,2.975463867187500000e+00,-2.441406250000000000e+00
1.453280687332153320e+01,3.775655984878540039e+00,-8.494627952575683594e+00,2.564189910888671875e+00,-6.118774414062500000e+00,3.585815429687500000e+00,-3.639221191406250000e+00
1.454361987113952637e+01,5.767632007598876953e+00,-8.906430244445800781e+00,2.564189910888671875e+00,-8.407592773437500000e+00,3.585815429687500000e+00,-3.639221191406250000e+00
1.455800390243530273e+01,5.767632007598876953e+00,-8.906430244445800781e+00,2.169146776199340820e+00,-8.407592773437500000e+00,3.585815429687500000e+00,-2.746582031250000000e-01
1.457512736320495605e+01,5.209782600402832031e+00,-8.906430244445800781e+00,2.169146776199340820e+00,7.629394531250000000e-03,-1.579284667968750000e+00,1.983642578125000000e-01
1.458579611778259277e+01,5.209782600402832031e+00,-7.836222171783447266e+00,3.713406801223754883e+00,7.629394531250000000e-03,-1.579284667968750000e+00,1.167297363281250000e+00
1.460013127326965332e+01,5.209782600402832031e+00,-7.836222171783447266e+00,3.713406801223754883e+00,-4.478454589843750000e+00,1.907348632812500000e-01,1.419067382812500000e+00
1.461377954483032227e+01,4.718971252441406250e+00,-8.061277389526367188e+00,2.372653961181640625e+00,-4.478454589843750000e+00,1.365661621093750000e+00,1.640319824218750000e+00
1.462606739997863770e+01,4.718971252441406250e+00,-8.142680168151855469e+00,2.367865324020385742e+00,-4.478454589843750000e+00,1.365661621093750000e+00,1.640319824218750000e+00
1.463817977905273438e+01,4.728548049926757812e+00,-8.142680168151855469e+00,2.367865324020385742e+00,-4.158020019531250000e+00,-3.440856933593750000e+00,1.640319824218750000e+00
1.465620565414428711e+01,4.728548049926757812e+00,-8.142680168151855469e+00,2.367865324020385742e+00,-2.441406250000000000e+00,-3.440856933593750000e+00,1.426696777343750000e+00
1.466827392578125000e+01,4.663904666900634766e+00,-8.051700592041015625e+00,3.232172250747680664e+00,-2.441406250000000000e+00,1.296997070312500000e-01,9.613037109375000000e-01
1.468017125129699707e+01,4.027047157287597656e+00,-8.051700592041015625e+00,3.232172250747680664e+00,-3.379821777343750000e+00,1.296997070312500000e-01,7.171630859375000000e-01
1.469809532165527344e+01,3.928884983062744141e+00,-7.934384346008300781e+00,3.232172250747680664e+00,-4.966735839843750000e+00,1.296997070312500000e-01,-1.609802246093750000e+00
1.470933699607849121e+01,3.713406801223754883e+00,-8.386888504028320312e+00,2.027888774871826172e+00,-3.379821777343750000e+00,-4.508972167968750000e+00,5.493164062500000000e-01
1.472303175926208496e+01,3.713406801223754883e+00,-8.386888504028320312e+00,1.910572886466979980e+00,-8.010864257812500000e-01,-3.135681152343750000e+00,5.493164062500000000e-01
1.473661279678344727e+01,4.151545524597167969e+00,-8.386888504028320312e+00,1.910572886466979980e+00,1.945495605468750000e+00,-3.196716308593750000e+00,2.815246582031250000e+00
1.475077414512634277e+01,4.194641113281250000e+00,-8.255207061767578125e+00,2.209848165512084961e+00,1.945495605468750000e+00,-3.135681152343750000e+00,2.815246582031250000e+00
1.476123189926147461e+01,4.383783340454101562e+00,-8.255207061767578125e+00,2.209848165512084961e+00,-4.051208496093750000e+00,-7.019042968750000000e-01,2.395629882812500000e+00
1.477693367004394531e+01,4.383783340454101562e+00,-8.736441612243652344e+00,2.367865324020385742e+00,-4.051208496093750000e+00,1.670837402343750000e+00,5.569458007812500000e-01
1.479382228851318359e+01,4.709394454956054688e+00,-8.736441612243652344e+00,2.367865324020385742e+00,-2.838134765625000000e+00,1.670837402343750000e+00,5.569458007812500000e-01
1.480450105667114258e+01,4.687846660614013672e+00,-8.731653213500976562e+00,2.367865324020385742e+00,-2.517700195312500000e-01,-7.324218750000000000e-01,3.036499023437500000e+00
1.481895875930786133e+01,4.687846660614013672e+00,-8.731653213500976562e+00,2.506729125976562500e+00,-2.517700195312500000e-01,-7.705688476562500000e-01,4.852294921875000000e+00
1.483064723014831543e+01,4.568136692047119141e+00,-8.731653213500976562e+00,2.420537948608398438e+00,-2.273559570312500000e+00,-7.705688476562500000e-01,3.036499023437500000e+00
1.484614038467407227e+01,4.568136692047119141e+00,-8.781931877136230469e+00,2.420537948608398438e+00,-2.273559570312500000e+00,-7.705688476562500000e-01,4.852294921875000000e+00
1.485806035995483398e+01,3.936067581176757812e+00,-8.504204750061035156e+00,1.915361285209655984e+00,-1.281738281250000000e+00,2.922058105468750000e+00,-3.585815429687500000e-01
1.487229919433593750e+01,4.707000255584716797e+00,-8.523358345031738281e+00,1.915361285209655984e+00,-3.890991210937500000e-01,1.228332519531250000e+00,2.868652343750000000e+00
1.488510274887084961e+01,4.613626480102539062e+00,-8.523358345031738281e+00,2.770091295242309570e+00,-3.890991210937500000e-01,1.228332519531250000e+00,2.548217773437500000e+00
1.489974713325500488e+01,4.613626480102539062e+00,-8.585607528686523438e+00,2.770091295242309570e+00,-1.777648925781250000e+00,-2.151489257812500000e+00,2.868652343750000000e+00
1.491190767288208008e+01,4.501099109649658203e+00,-8.585607528686523438e+00,2.671929121017456055e+00,-1.976013183593750000e+00,-2.151489257812500000e+00,3.952026367187500000e+00
1.493485832214355469e+01,4.501099109649658203e+00,-8.817844390869140625e+00,1.958456993103027566e+00,-2.288818359375000000e+00,-1.571655273437500000e+00,4.486083984375000000e+00
1.494624304771423340e+01,4.608838081359863281e+00,-8.609549522399902344e+00,1.958456993103027566e+00,-2.288818359375000000e+00,2.288818359375000000e-01,4.150390625000000000e+00
1.495705986022949219e+01,4.627991676330566406e+00,-8.609549522399902344e+00,2.882618904113769087e+00,-2.288818359375000000e+00,-6.103515625000000000e-02,4.486083984375000000e+00
1.496879601478576660e+01,4.627991676330566406e+00,-8.609549522399902344e+00,2.882618904113769087e+00,-2.914428710937500000e+00,1.983642578125000000e-01,4.150390625000000000e+00
1.498061108589172363e+01,4.627991676330566406e+00,-8.760383605957031250e+00,2.659958124160766602e+00,-2.914428710937500000e+00,-6.103515625000000000e-02,4.570007324218750000e+00
1.499657773971557617e+01,5.492298603057861328e+00,-9.018958091735839844e+00,1.721431016921997070e+00,-2.006530761718750000e+00,-8.605957031250000000e+00,7.499694824218750000e+00
1.500732469558715820e+01,5.983109951019287109e+00,-9.035717010498048651e+00,1.721431016921997070e+00,-1.449584960937500000e-01,-8.605957031250000000e+00,8.666992187500000000e+00
1.502263665199279785e+01,5.983109951019287109e+00,-9.018958091735839844e+00,2.193088769912720171e+00,-1.449584960937500000e-01,-6.454467773437500000e+00,8.666992187500000000e+00
1.503515005111694336e+01,5.971138954162597656e+00,-8.432377815246582031e+00,2.971204280853271484e+00,-3.219604492187500000e+00,-3.356933593750000000e-01,6.011962890625000000e+00
1.504952669143676758e+01,5.446808815002441406e+00,-8.360551834106445312e+00,2.971204280853271484e+00,-3.219604492187500000e+00,-3.356933593750000000e-01,3.456115722656250000e+00
1.506438636779785156e+01,5.446808815002441406e+00,-8.432377815246582031e+00,2.688688516616821289e+00,-2.838134765625000000e+00,-3.723144531250000000e+00,1.724243164062500000e+00
1.507952332496643066e+01,5.693411350250244141e+00,-8.693346023559570312e+00,1.984793186187743919e+00,-2.647399902343750000e+00,-4.753112792968750000e+00,1.167297363281250000e+00
1.509164404869079590e+01,5.693411350250244141e+00,-8.707711219787597656e+00,1.984793186187743919e+00,-2.624511718750000000e+00,-6.217956542968750000e+00,9.841918945312500000e-01
1.510289478302001953e+01,5.691017150878906250e+00,-8.707711219787597656e+00,2.123656988143920898e+00,-2.365112304687500000e+00,-7.171630859375000000e+00,-3.051757812500000000e-01
1.512157106399536133e+01,5.233724594116210938e+00,-8.729259490966796875e+00,2.545036315917968750e+00,-2.258300781250000000e+00,-7.171630859375000000e+00,9.841918945312500000e-01
1.513228845596313477e+01,4.127603530883789062e+00,-8.676587104797363281e+00,3.469198226928710938e+00,-1.640319824218750000e+00,-6.210327148437500000e+00,1.213073730468750000e+00
1.514658427238464355e+01,4.082113742828369141e+00,-8.676587104797363281e+00,3.646369218826293945e+00,-1.541137695312500000e+00,-3.295898437500000000e+00,3.715515136718750000e+00
1.516055464744567871e+01,3.651157617568969727e+00,-8.676587104797363281e+00,3.469198226928710938e+00,-1.541137695312500000e+00,8.392333984375000000e-02,1.213073730468750000e+00
1.517287325859069824e+01,3.651157617568969727e+00,-9.270348548889160156e+00,1.886630892753601074e+00,-1.541137695312500000e+00,8.392333984375000000e-02,-3.814697265625000000e-01
1.518862128257751465e+01,3.651157617568969727e+00,-9.270348548889160156e+00,1.886630892753601074e+00,-3.433227539062500000e-01,-1.060485839843750000e+00,-1.945495605468750000e+00
1.520148587226867676e+01,4.053383350372314453e+00,-8.434772491455078125e+00,2.609679698944091797e+00,-3.433227539062500000e-01,-1.060485839843750000e+00,-3.814697265625000000e-01
1.521426510810852051e+01,4.218583106994628906e+00,-8.434772491455078125e+00,2.609679698944091797e+00,-3.776550292968750000e+00,-1.411437988281250000e+00,1.213073730468750000e+00
1.522728276252746582e+01,4.311957359313964844e+00,-8.434772491455078125e+00,2.446874141693115234e+00,-3.776550292968750000e+00,-1.411437988281250000e+00,3.784179687500000000e+00
1.524465179443359375e+01,4.378994941711425781e+00,-8.437166213989257812e+00,2.446874141693115234e+00,-2.906799316406250000e+00,-4.486083984375000000e+00,6.919860839843750000e+00
1.525593638420104980e+01,4.786009311676025391e+00,-8.437166213989257812e+00,2.446874141693115234e+00,-2.906799316406250000e+00,-4.486083984375000000e+00,6.919860839843750000e+00
1.526874566078186035e+01,4.786009311676025391e+00,-8.485051155090332031e+00,2.664746522903442383e+00,-2.670288085937500000e+00,-2.937316894531250000e+00,3.845214843750000000e+00
1.528622174263000488e+01,4.972756862640380859e+00,-8.485051155090332031e+00,2.231395959854125977e+00,-2.525329589843750000e+00,-2.937316894531250000e+00,3.845214843750000000e+00
1.529639840126037598e+01,6.876147270202636719e+00,-8.485051155090332031e+00,2.664746522903442383e+00,-2.525329589843750000e+00,-1.312255859375000000e+01,1.340484619140625000e+01
1.531094408035278320e+01,9.593565940856933594e+00,-8.276755332946777344e+00,3.100491046905517578e+00,-1.365661621093750000e+00,-1.411437988281250000e+01,1.340484619140625000e+01
1.532553505897521973e+01,1.089601135253906250e+01,-7.671021938323974609e+00,3.102885246276855469e+00,-1.365661621093750000e+00,-1.954650878906250000e+01,5.477905273437500000e+00
1.533695077896118164e+01,1.089601135253906250e+01,-7.671021938323974609e+00,3.241749048233031782e+00,-1.365661621093750000e+00,-1.954650878906250000e+01,-2.990722656250000000e+00
1.535037755966186523e+01,8.456319808959960938e+00,-7.671021938323974609e+00,3.102885246276855469e+00,-5.149841308593750000e+00,1.472473144531250000e+01,-1.669311523437500000e+01
1.536452674865722656e+01,-1.216254472732543945e+00,-7.881711959838867188e+00,2.770091295242309570e+00,-5.149841308593750000e+00,1.789855957031250000e+01,-1.844787597656250000e+01
1.537630176544189453e+01,-1.223437070846557617e+00,-7.881711959838867188e+00,2.717418909072875977e+00,-6.561279296875000000e-01,1.789855957031250000e+01,-1.844787597656250000e+01
1.539158964157104492e+01,-1.223437070846557617e+00,-9.619902610778808594e+00,4.788403399288599684e-03,-6.561279296875000000e-01,-1.068115234375000000e+00,-3.952026367187500000e+00
1.540632581710815430e+01,2.260126352310180664e+00,-9.655815124511720526e+00,4.788403399288599684e-03,-2.922058105468750000e+00,-6.072998046875000000e+00,-7.324218750000000000e-01
1.541901874542236328e+01,4.920084476470947266e+00,-9.655815124511720526e+00,1.510741233825683594e+00,-6.462097167968750000e+00,-6.072998046875000000e+00,1.464843750000000000e+00
1.543454575538635254e+01,4.920084476470947266e+00,-8.599972724914550781e+00,2.588131904602050781e+00,-2.922058105468750000e+00,-1.152038574218750000e+00,1.464843750000000000e+00
1.544636845588684082e+01,3.327940225601196289e+00,-8.166622161865234375e+00,2.588131904602050781e+00,-3.341674804687500000e+00,-1.152038574218750000e+00,2.937316894531250000e+00
1.546039915084838867e+01,3.327940225601196289e+00,-8.166622161865234375e+00,2.123656988143920898e+00,-3.341674804687500000e+00,-4.806518554687500000e+00,9.185791015625000000e+00
1.547575926780700684e+01,5.492298603057861328e+00,-9.016563415527343750e+00,2.123656988143920898e+00,-3.608703613281250000e+00,-4.806518554687500000e+00,9.185791015625000000e+00
1.548764133453369141e+01,5.492298603057861328e+00,-9.016563415527343750e+00,2.729389905929564986e+00,-3.608703613281250000e+00,-1.564025878906250000e+00,5.363464355468750000e+00
1.550294971466064453e+01,4.781220912933349609e+00,-8.676587104797363281e+00,2.729389905929564986e+00,-2.662658691406250000e+00,-1.564025878906250000e+00,3.692626953125000000e+00
1.551437425613403320e+01,4.697423458099365234e+00,-8.676587104797363281e+00,2.327163934707641602e+00,-2.662658691406250000e+00,2.082824707031250000e+00,9.155273437500000000e-01
1.552920460700988770e+01,4.367023944854736328e+00,-8.676587104797363281e+00,2.327163934707641602e+00,-1.518249511718750000e+00,-2.059936523437500000e-01,3.814697265625000000e-01
1.554247426986694336e+01,4.697423458099365234e+00,-8.214506149291992188e+00,2.427720546722412109e+00,-4.463195800781250000e+00,2.082824707031250000e+00,3.814697265625000000e-01
1.555657887458801270e+01,4.515464305877685547e+00,-8.214506149291992188e+00,2.528276920318603516e+00,-1.922607421875000000e+00,8.163452148437500000e-01,9.918212890625000000e-01
1.556808900833129883e+01,4.515464305877685547e+00,-8.683769226074218750e+00,2.427720546722412109e+00,-4.280090332031250000e+00,8.163452148437500000e-01,9.918212890625000000e-01
1.558468842506408691e+01,4.412513732910156250e+00,-8.683769226074218750e+00,2.528276920318603516e+00,-3.890991210937500000e+00,3.662109375000000000e-01,5.187988281250000000e-01
1.559791660308837891e+01,4.412513732910156250e+00,-8.504204750061035156e+00,2.449268341064453125e+00,-3.890991210937500000e+00,-1.342773437500000000e+00,-5.798339843750000000e-01
1.561082315444946289e+01,4.472368717193604404e+00,-8.504204750061035156e+00,2.449268341064453125e+00,-3.334045410156250000e+00,-8.392333984375000000e-01,-5.798339843750000000e-01
1.562659525871276855e+01,4.733336448669433594e+00,-8.504204750061035156e+00,2.248155355453491211e+00,-3.334045410156250000e+00,-8.392333984375000000e-01,7.553100585937500000e-01
1.563739633560180664e+01,4.733336448669433594e+00,-8.322244644165039062e+00,2.231395959854125977e+00,-3.639221191406250000e+00,6.637573242187500000e-01,1.052856445312500000e+00
1.565331506729125977e+01,3.797203779220581055e+00,-8.300697326660156250e+00,2.013523578643798828e+00,-3.837585449218750000e+00,7.934570312500000000e-01,1.052856445312500000e+00
1.566582870483398438e+01,3.797203779220581055e+00,-7.958326339721679688e+00,2.166752576828002930e+00,-3.639221191406250000e+00,8.392333984375000000e-01,-7.858276367187500000e-01
1.567981028556823730e+01,3.821145772933959961e+00,-8.300697326660156250e+00,1.790862798690795898e+00,-1.701354980468750000e+00,8.392333984375000000e-01,-7.858276367187500000e-01
1.569559717178344727e+01,4.944026470184326172e+00,-8.307879447937011719e+00,2.166752576828002930e+00,-1.701354980468750000e+00,8.392333984375000000e-01,-1.434326171875000000e+00
1.570814752578735352e+01,4.944026470184326172e+00,-8.628703117370605469e+00,2.487575531005859819e+00,-1.106262207031250000e+00,-6.408691406250000000e-01,2.456665039062500000e+00
1.572159910202026367e+01,4.788403511047363281e+00,-8.628703117370605469e+00,2.487575531005859819e+00,-3.349304199218750000e+00,2.586364746093750000e+00,-1.434326171875000000e+00
1.573286294937133789e+01,4.098873138427734375e+00,-8.748413085937500000e+00,2.487575531005859819e+00,-3.349304199218750000e+00,2.586364746093750000e+00,-1.594543457031250000e+00
1.575077724456787109e+01,4.611232280731201172e+00,-8.832209587097167969e+00,2.032677173614501953e+00,-3.349304199218750000e+00,2.586364746093750000e+00,-1.594543457031250000e+00
1.576155447959899902e+01,4.611232280731201172e+00,-8.748413085937500000e+00,2.992752075195312500e+00,-5.043029785156250000e+00,-1.815795898437500000e+00,1.953125000000000000e+00
1.577576899528503418e+01,4.611232280731201172e+00,-8.063671112060546875e+00,2.990357875823974609e+00,-5.043029785156250000e+00,-1.815795898437500000e+00,1.953125000000000000e+00
1.579273915290832520e+01,4.599261283874511719e+00,-8.063671112060546875e+00,2.990357875823974609e+00,-5.043029785156250000e+00,-1.815795898437500000e+00,1.953125000000000000e+00
1.580312895774841309e+01,4.599261283874511719e+00,-8.875305175781250000e+00,1.867477297782897949e+00,-1.449584960937500000e-01,-1.739501953125000000e+00,3.196716308593750000e+00
1.581783127784729004e+01,4.122815132141113281e+00,-8.875305175781250000e+00,1.867477297782897949e+00,-1.449584960937500000e-01,-1.739501953125000000e+00,3.196716308593750000e+00
1.583215856552124023e+01,4.314351558685302734e+00,-8.875305175781250000e+00,1.735796213150024414e+00,-9.231567382812500000e-01,-1.739501953125000000e+00,3.097534179687500000e+00
1.584408664703369141e+01,4.314351558685302734e+00,-9.205705642700195312e+00,1.695094823837280495e+00,-9.231567382812500000e-01,-7.934570312500000000e-01,6.408691406250000000e-01
1.585728955268859863e+01,4.314351558685302734e+00,-9.205705642700195312e+00,1.695094823837280495e+00,-9.231567382812500000e-01,-7.934570312500000000e-01,6.408691406250000000e-01
1.587368798255920410e+01,4.247313976287841797e+00,-7.678204536437988281e+00,1.695094823837280495e+00,-2.281188964843750000e+00,3.631591796875000000e+00,-5.111694335937500000e-01
1.588456726074218750e+01,4.247313976287841797e+00,-7.678204536437988281e+00,1.568202137947082297e+00,-3.517150878906250000e+00,3.631591796875000000e+00,-5.111694335937500000e-01
1.589864563941955566e+01,4.343081951141357422e+00,-8.128314971923828125e+00,1.568202137947082297e+00,-3.517150878906250000e+00,3.631591796875000000e+00,-5.111694335937500000e-01
1.591656899452209473e+01,4.343081951141357422e+00,-8.128314971923828125e+00,2.813186883926392046e+00,-4.928588867187500000e+00,1.464843750000000000e+00,3.128051757812500000e-01
1.592693281173706055e+01,4.534617900848388672e+00,-8.128314971923828125e+00,2.813186883926392046e+00,-4.928588867187500000e+00,-8.544921875000000000e-01,3.128051757812500000e-01
1.594087481498718262e+01,4.831499099731445312e+00,-8.032546997070312500e+00,2.106897354125977007e+00,-4.928588867187500000e+00,-8.544921875000000000e-01,3.128051757812500000e-01
1.595516586303710938e+01,4.831499099731445312e+00,-8.216899871826171875e+00,2.106897354125977007e+00,-3.112792968750000000e+00,6.713867187500000000e-01,9.918212890625000000e-01
1.596687126159667969e+01,4.831499099731445312e+00,-8.216899871826171875e+00,2.106897354125977007e+00,-2.456665039062500000e+00,8.392333984375000000e-01,9.918212890625000000e-01
1.597942352294921875e+01,4.776432514190673828e+00,-8.961496353149414062e+00,2.920926094055175781e+00,-2.456665039062500000e+00,8.392333984375000000e-01,9.918212890625000000e-01
1.599461627006530762e+01,4.917690277099609375e+00,-8.961496353149414062e+00,2.920926094055175781e+00,-2.891540527343750000e+00,3.662109375000000000e+00,6.103515625000000000e-01
1.600889253616333008e+01,4.776432514190673828e+00,-8.662221908569335938e+00,2.920926094055175781e+00,-3.501892089843750000e+00,3.662109375000000000e+00,-6.484985351562500000e-01
1.602163505554199219e+01,4.917690277099609375e+00,-8.662221908569335938e+00,2.542642116546630859e+00,-3.288269042968750000e+00,2.944946289062500000e+00,6.103515625000000000e-01
1.603578400611877441e+01,4.544194698333740234e+00,-8.662221908569335938e+00,2.542642116546630859e+00,-3.501892089843750000e+00,2.571105957031250000e+00,4.501342773437500000e-01
1.604897093772888184e+01,4.948814868927001953e+00,-8.834604263305664062e+00,2.542642116546630859e+00,-3.288269042968750000e+00,3.890991210937500000e-01,1.502990722656250000e+00
1.606300187110900879e+01,4.292803764343261719e+00,-8.350975036621093750e+00,2.552218914031982422e+00,-5.409240722656250000e+00,3.890991210937500000e-01,4.501342773437500000e-01
1.607555747032165527e+01,4.556165695190429688e+00,-8.221688270568847656e+00,2.552218914031982422e+00,-3.013610839843750000e+00,1.083374023437500000e+00,5.569458007812500000e-01
1.609081363677978516e+01,4.292803764343261719e+00,-8.221688270568847656e+00,2.552218914031982422e+00,-3.120422363281250000e+00,1.083374023437500000e+00,5.569458007812500000e-01
1.610228109359741211e+01,4.556165695190429688e+00,-8.635885238647460938e+00,2.535459518432617188e+00,-3.013610839843750000e+00,-4.577636718750000000e-01,1.586914062500000000e+00
1.611817526817321777e+01,4.268861770629882812e+00,-8.635885238647460938e+00,2.535459518432617188e+00,-3.120422363281250000e+00,-4.577636718750000000e-01,1.586914062500000000e+00
1.613256764411926270e+01,4.644751071929931641e+00,-8.635885238647460938e+00,2.636016130447388139e+00,-2.998352050781250000e+00,-1.472473144531250000e+00,1.586914062500000000e+00
1.614460158348083496e+01,4.644751071929931641e+00,-8.753201484680175781e+00,2.636016130447388139e+00,-4.165649414062500000e+00,6.256103515625000000e-01,-8.621215820312500000e-01
1.615965700149536133e+01,4.644751071929931641e+00,-8.753201484680175781e+00,2.674323320388793945e+00,-3.074645996093750000e+00,-5.722045898437500000e-01,-8.621215820312500000e-01
1.617084383964538574e+01,4.989516258239746094e+00,-8.753201484680175781e+00,1.824381709098815918e+00,-3.074645996093750000e+00,-5.722045898437500000e-01,-8.621215820312500000e-01
1.618654847145080566e+01,4.503493309020996094e+00,-8.456319808959960938e+00,2.355894327163696289e+00,-3.074645996093750000e+00,-5.722045898437500000e-01,-2.052307128906250000e+00
1.619819569587707520e+01,4.503493309020996094e+00,-8.456319808959960938e+00,2.355894327163696289e+00,-1.708984375000000000e+00,-3.234863281250000000e+00,3.601074218750000000e+00
1.621456980705261230e+01,4.503493309020996094e+00,-8.456319808959960938e+00,2.355894327163696289e+00,-2.777099609375000000e+00,-2.044677734375000000e+00,2.380371093750000000e+00
1.622909259796142578e+01,4.398148536682128906e+00,-8.221688270568847656e+00,2.856282472610473633e+00,-2.777099609375000000e+00,-2.044677734375000000e+00,2.380371093750000000e+00
1.624051594734191895e+01,4.398148536682128906e+00,-8.671798706054687500e+00,2.545036315917968750e+00,-2.777099609375000000e+00,-2.044677734375000000e+00,2.380371093750000000e+00
1.625628280639648438e+01,4.398148536682128906e+00,-8.671798706054687500e+00,2.545036315917968750e+00,-4.737854003906250000e+00,2.616882324218750000e+00,-1.014709472656250000e+00
1.626723694801330566e+01,3.610455989837647373e+00,-8.671798706054687500e+00,2.545036315917968750e+00,-6.660461425781250000e+00,3.890991210937500000e+00,-1.014709472656250000e+00
1.628188872337341309e+01,3.545812606811523438e+00,-8.295908927917480469e+00,1.503558635711669922e+00,-7.308959960937500000e+00,4.150390625000000000e+00,-3.677368164062500000e+00
1.629492187500000000e+01,-5.580883979797363281e+00,-3.998316764831542969e+00,3.351882219314575195e+00,-6.660461425781250000e+00,3.890991210937500000e+00,-3.677368164062500000e+00
1.630932402610778809e+01,-5.580883979797363281e+00,-3.998316764831542969e+00,-3.275267839431762695e+00,2.510833740234375000e+01,2.632141113281250000e+00,2.876281738281250000e+01
1.632516884803771973e+01,1.110909581184387207e+00,-5.829881191253662109e+00,5.623979568481445312e+00,2.510833740234375000e+01,-1.809692382812500000e+01,2.876281738281250000e+01
1.633743405342102051e+01,1.874659895896912065e+00,-9.248801231384275567e+00,5.554547905921936035e-01,2.822875976562500000e+00,-1.809692382812500000e+01,1.968383789062500000e+01
1.635226392745971680e+01,1.874659895896912065e+00,-9.248801231384275567e+00,5.554547905921936035e-01,-1.174926757812500000e+00,-7.041931152343750000e+00,8.193969726562500000e+00
1.636383843421936035e+01,2.473210334777832031e+00,-9.296685218811035156e+00,5.554547905921936035e-01,-1.174926757812500000e+00,4.959106445312500000e-01,-7.133483886718750000e+00
1.638081192970275879e+01,2.664746522903442383e+00,-9.296685218811035156e+00,1.855506300926208496e+00,7.781982421875000000e-01,4.959106445312500000e-01,-7.133483886718750000e+00
1.639389443397521973e+01,6.088454723358154297e+00,-8.353369712829589844e+00,1.968033790588378906e+00,7.781982421875000000e-01,-1.327514648437500000e+00,4.730224609375000000e-01
1.640590786933898926e+01,6.088454723358154297e+00,-8.353369712829589844e+00,1.968033790588378906e+00,-6.706237792968750000e+00,-1.327514648437500000e+00,3.379821777343750000e+00
1.642366194725036621e+01,5.592854976654052734e+00,-9.021351814270019531e+00,1.968033790588378906e+00,-6.706237792968750000e+00,2.494812011718750000e+00,5.531311035156250000e+00
1.643395686149597168e+01,4.525041103363037109e+00,-9.021351814270019531e+00,2.126051187515258789e+00,-1.228332519531250000e+00,2.494812011718750000e+00,5.531311035156250000e+00
1.644797372817993164e+01,3.916913986206055132e+00,-8.729259490966796875e+00,2.612073898315429688e+00,-1.228332519531250000e+00,-1.449584960937500000e-01,2.006530761718750000e+00
1.646194696426391602e+01,3.916913986206055132e+00,-8.729259490966796875e+00,2.612073898315429688e+00,-5.401611328125000000e+00,-2.822875976562500000e-01,-4.379272460937500000e+00
1.647478747367858887e+01,4.881777286529541016e+00,-8.729259490966796875e+00,2.420537948608398438e+00,-5.401611328125000000e+00,-6.561279296875000000e-01,-4.379272460937500000e+00
1.649061870574951172e+01,5.207388401031494141e+00,-8.619126319885253906e+00,2.420537948608398438e+00,-2.967834472656250000e+00,-6.561279296875000000e-01,1.983642578125000000e+00
1.650404500961303711e+01,5.207388401031494141e+00,-8.619126319885253906e+00,2.628833532333374023e+00,-2.967834472656250000e+00,1.846313476562500000e+00,2.372741699218750000e+00
1.651705265045166016e+01,4.455609321594238281e+00,-8.719682693481445312e+00,2.628833532333374023e+00,-3.097534179687500000e+00,1.846313476562500000e+00,2.372741699218750000e+00
1.652966189384460449e+01,4.455609321594238281e+00,-8.860939979553222656e+00,2.719813108444213867e+00,-3.097534179687500000e+00,-8.544921875000000000e-01,1.091003417968750000e+00
1.654619455337524414e+01,4.577713489532470703e+00,-8.860939979553222656e+00,2.719813108444213867e+00,-3.097534179687500000e+00,-8.544921875000000000e-01,-5.340576171875000000e-02
1.655720734596252441e+01,5.226541996002197266e+00,-8.700529098510742188e+00,2.719813108444213867e+00,-3.967285156250000000e+00,-5.798339843750000000e-01,-4.730224609375000000e-01
1.656986165046691895e+01,5.226541996002197266e+00,-8.686163902282714844e+00,2.082955360412597656e+00,-3.967285156250000000e+00,-6.103515625000000000e-02,-4.730224609375000000e-01
1.658825588226318359e+01,4.850652694702148438e+00,-8.686163902282714844e+00,2.082955360412597656e+00,-3.410339355468750000e+00,9.918212890625000000e-01,1.487731933593750000e+00
1.659971904754638672e+01,4.280832767486572266e+00,-8.652645111083984375e+00,2.561795711517333984e+00,-3.410339355468750000e+00,9.918212890625000000e-01,1.487731933593750000e+00
1.661278319358825684e+01,4.280832767486572266e+00,-8.652645111083984375e+00,2.561795711517333984e+00,-3.608703613281250000e+00,3.509521484375000000e-01,-1.525878906250000000e-02
1.662474346160888672e+01,4.908113479614257812e+00,-8.705317497253417969e+00,2.355894327163696289e+00,-3.608703613281250000e+00,-2.822875976562500000e-01,-8.392333984375000000e-02
1.663959407806396484e+01,4.908113479614257812e+00,-8.705317497253417969e+00,2.327163934707641602e+00,-3.479003906250000000e+00,-2.822875976562500000e-01,-1.525878906250000000e-02
1.665272092819213867e+01,4.783615112304688388e+00,-8.705317497253417969e+00,2.355894327163696289e+00,-3.479003906250000000e+00,-2.822875976562500000e-01,1.358032226562500000e+00
1.666585445404052734e+01,4.718971252441406250e+00,-8.844181060791015625e+00,2.327163934707641602e+00,-3.814697265625000000e+00,8.468627929687500000e-01,1.358032226562500000e+00
1.668683052062988281e+01,4.412513732910156250e+00,-8.844181060791015625e+00,2.650381326675415039e+00,-3.814697265625000000e+00,8.468627929687500000e-01,6.484985351562500000e-01
1.669712400436401367e+01,4.412513732910156250e+00,-8.695740699768066406e+00,2.650381326675415039e+00,-3.814697265625000000e+00,3.051757812500000000e-01,-7.781982421875000000e-01
1.670873403549194336e+01,4.635174274444580078e+00,-8.645462036132812500e+00,2.650381326675415039e+00,-3.730773925781250000e+00,-8.010864257812500000e-01,-7.781982421875000000e-01
1.672138667106628418e+01,4.695029258728027344e+00,-8.607154846191406250e+00,2.437297344207764116e+00,-3.730773925781250000e+00,3.051757812500000000e-01,-1.907348632812500000e-01
1.673585057258605957e+01,4.695029258728027344e+00,-8.607154846191406250e+00,2.319981336593627930e+00,-3.234863281250000000e+00,-8.010864257812500000e-01,1.152038574218750000e+00
1.675026321411132812e+01,4.400542736053466797e+00,-8.499416351318359375e+00,2.319981336593627930e+00,-3.234863281250000000e+00,5.798339843750000000e-01,1.152038574218750000e+00
1.676259326934814453e+01,4.400542736053466797e+00,-8.396465301513671875e+00,2.255337953567504883e+00,-3.860473632812500000e+00,-9.765625000000000000e-01,5.798339843750000000e-01
1.677823472023010254e+01,4.697423458099365234e+00,-8.396465301513671875e+00,2.255337953567504883e+00,-3.860473632812500000e+00,5.798339843750000000e-01,5.416870117187500000e-01
1.679013776779174805e+01,4.697423458099365234e+00,-8.396465301513671875e+00,2.487575531005859819e+00,-3.623962402343750000e+00,-4.196166992187500000e-01,5.798339843750000000e-01
