# elapsed time, f2_acc_x, f2_acc_y, f2_acc_z, f2_gyro_x, f2_gyro_y, f2_gyro_z
8.799424886703491211e+00,-3.426102638244628906e+00,-8.451531410217285156e+00,3.787626981735229492e+00,4.501342773437500000e-01,-3.890991210937500000e-01,-2.517700195312500000e-01
8.810662031173706055e+00,-3.426102638244628906e+00,-8.451531410217285156e+00,3.801992177963256836e+00,4.501342773437500000e-01,1.525878906250000000e-02,-1.068115234375000000e-01
8.824874162673950195e+00,-3.404554843902587891e+00,-8.451531410217285156e+00,3.871424198150634322e+00,2.899169921875000000e-01,-1.525878906250000000e-02,7.629394531250000000e-03
8.838517665863037109e+00,-3.404554843902587891e+00,-8.497021675109863281e+00,3.871424198150634322e+00,1.754760742187500000e-01,-1.525878906250000000e-02,7.629394531250000000e-03
8.850551605224609375e+00,-3.404554843902587891e+00,-8.497021675109863281e+00,3.823539972305297852e+00,1.754760742187500000e-01,-8.392333984375000000e-02,7.629394531250000000e-03
8.866358995437622070e+00,-3.397372245788574219e+00,-8.468291282653808594e+00,3.778050184249877930e+00,2.670288085937500000e-01,-8.392333984375000000e-02,-8.392333984375000000e-02
8.880730628967285156e+00,-3.397372245788574219e+00,-8.446743011474609375e+00,3.778050184249877930e+00,2.670288085937500000e-01,-8.392333984375000000e-02,-8.392333984375000000e-02
8.892574310302734375e+00,-3.397372245788574219e+00,-8.446743011474609375e+00,3.782838582992553711e+00,2.670288085937500000e-01,-6.866455078125000000e-02,-8.392333984375000000e-02
8.905777454376220703e+00,-3.378218650817871094e+00,-8.453926086425781250e+00,3.816357374191284180e+00,1.983642578125000000e-01,9.155273437500000000e-02,-2.288818359375000000e-01
8.922642707824707031e+00,-3.371036052703857422e+00,-8.453926086425781250e+00,3.907337188720703125e+00,4.348754882812500000e-01,9.155273437500000000e-02,-2.288818359375000000e-01
8.933607101440429688e+00,-3.371036052703857422e+00,-8.492233276367187500e+00,3.907337188720703125e+00,2.288818359375000000e-01,2.136230468750000000e-01,-2.212524414062500000e-01
8.946808099746704102e+00,-3.366247415542602539e+00,-8.468291282653808594e+00,3.907337188720703125e+00,3.890991210937500000e-01,1.449584960937500000e-01,-1.144409179687500000e-01
8.965063571929931641e+00,-3.354276418685913086e+00,-8.468291282653808594e+00,3.869029998779296875e+00,2.288818359375000000e-01,1.449584960937500000e-01,-7.629394531250000000e-02
8.975693941116333008e+00,-3.354276418685913086e+00,-8.468291282653808594e+00,3.801992177963256836e+00,1.296997070312500000e-01,1.449584960937500000e-01,4.577636718750000000e-02
8.988969802856445312e+00,-3.354276418685913086e+00,-8.518569946289062500e+00,3.801992177963256836e+00,1.296997070312500000e-01,-3.814697265625000000e-01,1.220703125000000000e-01
9.003403663635253906e+00,-3.320757627487182617e+00,-8.518569946289062500e+00,3.801992177963256836e+00,1.296997070312500000e-01,-4.577636718750000000e-01,2.365112304687500000e-01
9.016022682189941406e+00,-3.320757627487182617e+00,-8.449137687683105469e+00,3.794809579849243164e+00,1.068115234375000000e-01,-4.577636718750000000e-01,2.365112304687500000e-01
9.032005310058593750e+00,-3.347093820571899414e+00,-8.374917030334472656e+00,3.794809579849243164e+00,1.068115234375000000e-01,-1.296997070312500000e-01,-8.392333984375000000e-02
9.045206308364868164e+00,-3.356670618057250977e+00,-8.374917030334472656e+00,3.794809579849243164e+00,1.754760742187500000e-01,-1.296997070312500000e-01,-1.296997070312500000e-01
9.058116912841796875e+00,-3.356670618057250977e+00,-8.382100105285644531e+00,3.763684988021850586e+00,1.831054687500000000e-01,-1.296997070312500000e-01,-1.296997070312500000e-01
9.070154428482055664e+00,-3.375824451446533203e+00,-8.394070625305175781e+00,3.763684988021850586e+00,2.288818359375000000e-01,-2.822875976562500000e-01,-1.296997070312500000e-01
9.085346221923828125e+00,-3.402160644531250000e+00,-8.396465301513671875e+00,3.773261785507202148e+00,2.288818359375000000e-01,6.103515625000000000e-02,-1.220703125000000000e-01
9.097125291824340820e+00,-3.375824451446533203e+00,-8.427589416503906250e+00,3.816357374191284180e+00,2.746582031250000000e-01,-2.212524414062500000e-01,-1.220703125000000000e-01
9.111989498138427734e+00,-3.418920040130615234e+00,-8.446743011474609375e+00,3.816357374191284180e+00,3.051757812500000000e-01,-2.212524414062500000e-01,-1.220703125000000000e-01
9.124209642410278320e+00,-3.373430252075195757e+00,-8.446743011474609375e+00,3.816357374191284180e+00,3.051757812500000000e-01,-2.212524414062500000e-01,-1.144409179687500000e-01
9.139491319656372070e+00,-3.383007049560546875e+00,-8.463502883911132812e+00,3.883395195007324219e+00,3.051757812500000000e-01,-1.907348632812500000e-01,5.340576171875000000e-02
9.153641700744628906e+00,-3.383007049560546875e+00,-8.461108207702636719e+00,3.890577793121337891e+00,3.051757812500000000e-01,3.814697265625000000e-02,5.340576171875000000e-02
9.166376113891601562e+00,-3.383007049560546875e+00,-8.461108207702636719e+00,3.890577793121337891e+00,3.051757812500000000e-01,2.212524414062500000e-01,-3.128051757812500000e-01
9.180828332901000977e+00,-3.473986625671386719e+00,-8.401253700256347656e+00,3.816357374191284180e+00,3.509521484375000000e-01,3.051757812500000000e-01,-3.662109375000000000e-01
9.193573713302612305e+00,-3.397372245788574219e+00,-8.401253700256347656e+00,3.816357374191284180e+00,1.678466796875000000e-01,3.051757812500000000e-01,-3.662109375000000000e-01
9.208496809005737305e+00,-3.428496837615966797e+00,-8.396465301513671875e+00,3.816357374191284180e+00,1.678466796875000000e-01,2.288818359375000000e-02,-9.155273437500000000e-02
9.220425844192504883e+00,-3.428496837615966797e+00,-8.362946510314941406e+00,3.830722570419311968e+00,1.602172851562500000e-01,-1.983642578125000000e-01,-9.155273437500000000e-02
9.235657930374145508e+00,-3.428496837615966797e+00,-8.327033042907714844e+00,3.749319791793823242e+00,5.340576171875000000e-02,-1.983642578125000000e-01,-5.416870117187500000e-01
9.247999191284179688e+00,-3.409343242645264116e+00,-8.334216117858886719e+00,3.749319791793823242e+00,1.602172851562500000e-01,-2.212524414062500000e-01,-6.332397460937500000e-01
9.262032747268676758e+00,-3.409343242645264116e+00,-8.334216117858886719e+00,3.749319791793823242e+00,3.128051757812500000e-01,3.967285156250000000e-01,-6.790161132812500000e-01
9.274200201034545898e+00,-3.363853216171264648e+00,-8.343792915344238281e+00,3.825934171676636186e+00,4.959106445312500000e-01,7.629394531250000000e-02,-6.790161132812500000e-01
9.293161392211914062e+00,-3.476380825042724609e+00,-8.432377815246582031e+00,3.840299367904663086e+00,1.220703125000000000e+00,7.629394531250000000e-02,-6.790161132812500000e-01
9.304815769195556641e+00,-3.476380825042724609e+00,-8.640673637390136719e+00,3.825934171676636186e+00,1.304626464843750000e+00,7.629394531250000000e-02,-8.697509765625000000e-01
9.315624713897705078e+00,-3.476380825042724609e+00,-8.640673637390136719e+00,3.840299367904663086e+00,1.304626464843750000e+00,-4.882812500000000000e-01,-4.577636718750000000e-01
9.331330299377441406e+00,-3.754108190536499023e+00,-8.499416351318359375e+00,3.962403774261474609e+00,2.311706542968750000e+00,-2.159118652343750000e+00,-2.059936523437500000e+00
9.343684911727905273e+00,-3.215412855148315430e+00,-8.499416351318359375e+00,4.024652957916259766e+00,-8.316040039062500000e-01,-2.159118652343750000e+00,-1.785278320312500000e+00
9.357689380645751953e+00,-3.215412855148315430e+00,-8.415618896484375000e+00,3.962403774261474609e+00,-8.316040039062500000e-01,-1.571655273437500000e+00,-1.785278320312500000e+00
9.369546890258789062e+00,-3.215412855148315430e+00,-8.580819129943847656e+00,3.957615375518798828e+00,-8.316040039062500000e-01,-1.525878906250000000e-02,2.441406250000000000e-01
9.385979890823364258e+00,-3.215412855148315430e+00,-8.379705429077148438e+00,3.933673381805419922e+00,3.280639648437500000e-01,-1.571655273437500000e+00,1.968383789062500000e+00
9.396450042724609375e+00,-3.442862033843994141e+00,-8.355763435363769531e+00,3.933673381805419922e+00,3.280639648437500000e-01,1.296997070312500000e+00,1.564025878906250000e+00
9.412753820419311523e+00,-3.366247415542602539e+00,-8.355763435363769531e+00,3.933673381805419922e+00,1.602172851562500000e-01,-3.814697265625000000e-01,1.564025878906250000e+00
9.426357030868530273e+00,-3.397372245788574219e+00,-8.355763435363769531e+00,3.912125587463378906e+00,-2.441406250000000000e-01,1.296997070312500000e+00,1.548767089843750000e+00
9.439352512359619141e+00,-3.366247415542602539e+00,-8.379705429077148438e+00,3.895366191864013672e+00,-2.441406250000000000e-01,1.243591308593750000e+00,1.091003417968750000e+00
9.453623771667480469e+00,-3.308786630630493164e+00,-8.295908927917480469e+00,3.857058763504027876e+00,2.822875976562500000e-01,1.243591308593750000e+00,4.730224609375000000e-01
9.468566894531250000e+00,-3.308786630630493164e+00,-8.180987358093261719e+00,3.593696594238280806e+00,5.111694335937500000e-01,3.890991210937500000e-01,-2.136230468750000000e-01
9.481395483016967773e+00,-3.433285236358642578e+00,-8.180987358093261719e+00,3.593696594238280806e+00,1.296997070312500000e+00,-1.220703125000000000e-01,-2.441406250000000000e-01
9.493300914764404297e+00,-3.433285236358642578e+00,-8.269572257995605469e+00,3.976768970489501953e+00,1.296997070312500000e+00,-1.220703125000000000e-01,-3.128051757812500000e-01
9.510566711425781250e+00,-3.433285236358642578e+00,-8.269572257995605469e+00,3.976768970489501953e+00,1.228332519531250000e+00,-3.814697265625000000e-02,-3.128051757812500000e-01
9.522892951965332031e+00,-3.457227230072021040e+00,-8.269572257995605469e+00,3.938461780548096147e+00,1.228332519531250000e+00,-3.814697265625000000e-02,-3.128051757812500000e-01
9.534762859344482422e+00,-3.457227230072021040e+00,-8.441954612731933594e+00,3.732560396194458008e+00,1.312255859375000000e+00,5.874633789062500000e-01,1.525878906250000000e-01
9.552608489990234375e+00,-3.502717018127441406e+00,-8.441954612731933594e+00,3.813963174819945401e+00,1.312255859375000000e+00,-1.335144042968750000e+00,1.525878906250000000e-01
9.563621997833251953e+00,-3.512293815612792969e+00,-8.441954612731933594e+00,3.732560396194458008e+00,1.296997070312500000e+00,-1.144409179687500000e-01,7.629394531250000000e-03
9.577516555786132812e+00,-3.512293815612792969e+00,-8.334216117858886719e+00,3.768473386764526367e+00,1.075744628906250000e+00,-3.967285156250000000e-01,-4.196166992187500000e-01
9.591639518737792969e+00,-3.289633035659790039e+00,-8.461108207702636719e+00,3.768473386764526367e+00,-1.068115234375000000e-01,-1.144409179687500000e-01,-4.196166992187500000e-01
9.603909492492675781e+00,-3.289633035659790039e+00,-8.532935142517089844e+00,3.881000995635985440e+00,-5.111694335937500000e-01,-1.525878906250000000e-01,-2.975463867187500000e-01
9.619060277938842773e+00,-3.265691041946411133e+00,-8.532935142517089844e+00,3.881000995635985440e+00,-5.111694335937500000e-01,8.621215820312500000e-01,-2.975463867187500000e-01
9.633563041687011719e+00,-3.337517023086547852e+00,-8.518569946289062500e+00,3.744531393051147905e+00,1.373291015625000000e-01,-1.525878906250000000e-01,6.103515625000000000e-01
9.647416830062866211e+00,-3.337517023086547852e+00,-8.317456245422363281e+00,3.696647405624389648e+00,2.136230468750000000e-01,-1.075744628906250000e+00,-6.027221679687500000e-01
9.658340454101562500e+00,-3.383007049560546875e+00,-8.248024940490722656e+00,3.744531393051147905e+00,3.128051757812500000e-01,-1.678466796875000000e+00,9.155273437500000000e-02
9.675595283508300781e+00,-3.383007049560546875e+00,-8.248024940490722656e+00,3.696647405624389648e+00,1.945495605468750000e+00,-2.120971679687500000e+00,-6.408691406250000000e-01
9.686171531677246094e+00,-3.366247415542602539e+00,-8.322244644165039062e+00,3.799597978591918945e+00,2.494812011718750000e+00,-2.120971679687500000e+00,-9.689331054687500000e-01
9.699772357940673828e+00,-3.155557870864868164e+00,-8.604761123657226562e+00,4.067748546600341797e+00,2.494812011718750000e+00,-1.403808593750000000e+00,-9.689331054687500000e-01
9.712539196014404297e+00,-3.155557870864868164e+00,-8.604761123657226562e+00,4.144362926483154297e+00,1.831054687500000000e+00,-9.002685546875000000e-01,-1.907348632812500000e-01
9.726676464080810547e+00,-3.234566450119018555e+00,-8.535328865051269531e+00,4.144362926483154297e+00,6.637573242187500000e-01,-9.002685546875000000e-01,6.866455078125000000e-02
9.742561817169189453e+00,-3.260902643203735796e+00,-8.214506149291992188e+00,3.713406801223754883e+00,-1.060485839843750000e+00,-5.340576171875000000e-02,6.866455078125000000e-02
9.754327297210693359e+00,-3.294421434402465820e+00,-8.214506149291992188e+00,3.708618402481079102e+00,-1.060485839843750000e+00,-5.340576171875000000e-02,-3.662109375000000000e-01
9.769411087036132812e+00,-3.526659011840820312e+00,-8.362946510314941406e+00,3.670311212539672852e+00,1.998901367187500000e+00,-5.340576171875000000e-02,-3.662109375000000000e-01
9.781152963638305664e+00,-3.294421434402465820e+00,-8.374917030334472656e+00,3.670311212539672852e+00,2.098083496093750000e+00,1.449584960937500000e-01,5.187988281250000000e-01
9.796386957168579102e+00,-3.260902643203735796e+00,-8.374917030334472656e+00,3.960009574890136719e+00,2.098083496093750000e+00,1.449584960937500000e-01,8.468627929687500000e-01
9.810548305511474609e+00,-3.260902643203735796e+00,-8.358158111572265625e+00,4.000710964202880859e+00,1.884460449218750000e+00,4.577636718750000000e-01,5.187988281250000000e-01
9.822942495346069336e+00,-3.260902643203735796e+00,-8.358158111572265625e+00,3.960009574890136719e+00,1.121520996093750000e+00,2.212524414062500000e+00,2.975463867187500000e-01
9.838133573532104492e+00,-3.134010076522827148e+00,-8.518569946289062500e+00,3.983951568603516069e+00,6.484985351562500000e-01,2.212524414062500000e+00,-1.815795898437500000e+00
9.850442171096801758e+00,-3.134010076522827148e+00,-8.518569946289062500e+00,3.744531393051147905e+00,8.773803710937500000e-01,1.358032226562500000e+00,-1.815795898437500000e+00
9.865535259246826172e+00,-3.126827478408813032e+00,-8.504204750061035156e+00,3.967192173004150391e+00,8.773803710937500000e-01,1.358032226562500000e+00,-1.815795898437500000e+00
9.877014636993408203e+00,-3.169923067092895508e+00,-8.487444877624511719e+00,3.873818397521972656e+00,1.213073730468750000e+00,8.468627929687500000e-01,-1.876831054687500000e+00
9.891989707946777344e+00,-3.169923067092895508e+00,-8.413224220275878906e+00,3.967192173004150391e+00,1.213073730468750000e+00,1.007080078125000000e+00,-1.876831054687500000e+00
9.903571844100952148e+00,-3.169923067092895508e+00,-8.389282226562500000e+00,3.873818397521972656e+00,1.213073730468750000e+00,1.007080078125000000e+00,-1.876831054687500000e+00
9.919214487075805664e+00,-3.356670618057250977e+00,-8.413224220275878906e+00,3.737348794937133789e+00,8.850097656250000000e-01,1.007080078125000000e+00,-1.853942871093750000e+00
9.934534072875976562e+00,-3.356670618057250977e+00,-8.372523307800292969e+00,3.737348794937133789e+00,9.078979492187500000e-01,2.250671386718750000e+00,-2.449035644531250000e+00
9.946846961975097656e+00,-3.356670618057250977e+00,-8.418012619018554688e+00,3.926490783691406250e+00,9.078979492187500000e-01,1.884460449218750000e+00,-2.044677734375000000e+00
9.960899829864501953e+00,-2.997540473937988281e+00,-8.372523307800292969e+00,4.010287761688232422e+00,1.228332519531250000e+00,1.884460449218750000e+00,-2.044677734375000000e+00
9.973783969879150391e+00,-2.997540473937988281e+00,-8.267178535461425781e+00,4.010287761688232422e+00,1.228332519531250000e+00,1.884460449218750000e+00,-1.602172851562500000e+00
9.987804412841796875e+00,-3.203441858291625977e+00,-8.267178535461425781e+00,4.010287761688232422e+00,-9.307861328125000000e-01,-1.831054687500000000e+00,-4.501342773437500000e-01
1.000061964988708496e+01,-3.883395195007324219e+00,-8.573636054992675781e+00,3.857058763504027876e+00,-9.307861328125000000e-01,1.373291015625000000e+00,-1.602172851562500000e+00
1.001743268966674805e+01,-3.883395195007324219e+00,-8.573636054992675781e+00,3.703830003738403320e+00,-9.307861328125000000e-01,-1.831054687500000000e+00,-4.501342773437500000e-01
1.002770113945007324e+01,-2.973598480224609375e+00,-8.420407295227050781e+00,3.857058763504027876e+00,1.014709472656250000e+00,-9.231567382812500000e-01,-1.655578613281250000e+00
1.004169249534606934e+01,-2.973598480224609375e+00,-8.420407295227050781e+00,3.969586372375487837e+00,1.106262207031250000e+00,-9.231567382812500000e-01,-1.251220703125000000e+00
1.005661630630493164e+01,-3.268085241317749023e+00,-8.422801017761230469e+00,4.077325344085693359e+00,1.106262207031250000e+00,-2.746582031250000000e-01,-1.655578613281250000e+00
1.006875395774841309e+01,-3.481169223785400391e+00,-8.422801017761230469e+00,3.969586372375487837e+00,1.068115234375000000e+00,-2.746582031250000000e-01,-1.251220703125000000e+00
1.008438539505004883e+01,-3.505111217498779741e+00,-8.271966934204101562e+00,3.916913986206055132e+00,1.068115234375000000e+00,1.342773437500000000e+00,-1.831054687500000000e+00
1.009836721420288086e+01,-3.505111217498779741e+00,-8.271966934204101562e+00,3.725377798080443892e+00,3.082275390625000000e+00,-1.182556152343750000e+00,-3.204345703125000000e-01
1.011150622367858887e+01,-3.244143247604370117e+00,-8.300697326660156250e+00,3.916913986206055132e+00,3.768920898437500000e+00,1.136779785156250000e+00,-2.838134765625000000e+00
1.012386155128479004e+01,-3.157952070236206055e+00,-8.480262756347656250e+00,4.034229755401611328e+00,3.082275390625000000e+00,1.136779785156250000e+00,-3.257751464843750000e+00
1.014017605781555176e+01,-3.157952070236206055e+00,-8.580819129943847656e+00,4.034229755401611328e+00,3.677368164062500000e+00,1.136779785156250000e+00,-3.257751464843750000e+00
1.015065526962280273e+01,-3.157952070236206055e+00,-8.513781547546386719e+00,4.062960147857666016e+00,1.495361328125000000e+00,1.571655273437500000e+00,-3.067016601562500000e+00
1.016508030891418457e+01,-3.347093820571899414e+00,-8.616731643676757812e+00,3.943250179290771928e+00,1.655578613281250000e+00,1.853942871093750000e+00,-3.067016601562500000e+00
1.017942619323730469e+01,-3.347093820571899414e+00,-8.650250434875488281e+00,3.981557369232177734e+00,1.655578613281250000e+00,2.876281738281250000e+00,-2.593994140625000000e+00
1.019166851043701172e+01,-3.347093820571899414e+00,-8.650250434875488281e+00,3.859452962875366211e+00,1.983642578125000000e+00,3.700256347656250000e+00,-2.593994140625000000e+00
1.020753407478332520e+01,-3.260902643203735796e+00,-8.549694061279296875e+00,3.866635799407958984e+00,2.647399902343750000e+00,3.700256347656250000e+00,-1.693725585937500000e+00
1.022163295745849609e+01,-3.260902643203735796e+00,-8.487444877624511719e+00,3.857058763504027876e+00,3.616333007812500000e+00,4.043579101562500000e-01,-1.670837402343750000e+00
1.023461532592773438e+01,-3.122039079666137695e+00,-8.386888504028320312e+00,3.866635799407958984e+00,3.684997558593750000e+00,-1.083374023437500000e+00,-1.670837402343750000e+00
1.024658942222595215e+01,-3.270479440689086914e+00,-8.386888504028320312e+00,3.857058763504027876e+00,3.997802734375000000e+00,-1.083374023437500000e+00,-2.159118652343750000e+00
1.026355528831481934e+01,-3.320757627487182617e+00,-8.470685005187988281e+00,3.995922565460205078e+00,5.699157714843750000e+00,-1.091003417968750000e+00,-2.159118652343750000e+00
1.027467823028564453e+01,-3.320757627487182617e+00,-8.494627952575683594e+00,3.995922565460205078e+00,7.339477539062500000e+00,-2.380371093750000000e+00,-2.334594726562500000e+00
1.028767037391662598e+01,-3.143586874008178711e+00,-8.470685005187988281e+00,4.118026733398437500e+00,7.339477539062500000e+00,-2.380371093750000000e+00,-3.547668457031250000e+00
1.030310058593750000e+01,-3.026270866394042969e+00,-8.382100105285644531e+00,4.118026733398437500e+00,3.890991210937500000e+00,-2.899169921875000000e-01,-3.547668457031250000e+00
1.031482076644897461e+01,-3.143586874008178711e+00,-8.382100105285644531e+00,3.895366191864013672e+00,3.890991210937500000e+00,1.235961914062500000e+00,-2.899169921875000000e+00
1.032975268363952637e+01,-3.545812606811523438e+00,-8.248024940490722656e+00,3.895366191864013672e+00,3.814697265625000000e+00,1.289367675781250000e+00,-2.899169921875000000e+00
1.034195089340209961e+01,-3.545812606811523438e+00,-8.532935142517089844e+00,3.931279182434082031e+00,3.440856933593750000e+00,1.289367675781250000e+00,-4.280090332031250000e+00
1.035709142684936523e+01,-3.251325845718383789e+00,-8.370128631591796875e+00,4.046200752258300781e+00,3.234863281250000000e+00,2.937316894531250000e+00,-4.280090332031250000e+00
1.036893320083618164e+01,-3.251325845718383789e+00,-8.508993148803710938e+00,4.034229755401611328e+00,3.234863281250000000e+00,-2.212524414062500000e-01,-1.792907714843750000e+00
1.038424086570739746e+01,-3.251325845718383789e+00,-8.453926086425781250e+00,4.034229755401611328e+00,3.234863281250000000e+00,2.937316894531250000e+00,-1.792907714843750000e+00
1.039835548400878906e+01,-3.196259260177612305e+00,-8.473079681396484375e+00,4.034229755401611328e+00,2.922058105468750000e+00,1.815795898437500000e+00,-1.792907714843750000e+00
1.041152191162109375e+01,-3.014299869537353072e+00,-8.453926086425781250e+00,4.134786128997802734e+00,2.693176269531250000e+00,1.892089843750000000e+00,-1.914978027343750000e+00
1.042641568183898926e+01,-3.196259260177612305e+00,-8.348581314086914062e+00,4.134786128997802734e+00,2.235412597656250000e+00,1.815795898437500000e+00,-5.340576171875000000e-02
1.043836736679077148e+01,-3.208230257034301758e+00,-8.303091049194335938e+00,4.165910720825195312e+00,1.388549804687500000e+00,9.765625000000000000e-01,-5.340576171875000000e-02
1.045354557037353516e+01,-3.234566450119018555e+00,-7.967903137207031250e+00,3.890577793121337891e+00,1.388549804687500000e+00,-5.187988281250000000e-01,-5.340576171875000000e-02
1.046488809585571289e+01,-3.459621429443359819e+00,-8.303091049194335938e+00,3.962403774261474609e+00,3.692626953125000000e+00,-5.187988281250000000e-01,-7.476806640625000000e-01
1.048017668724060059e+01,-3.459621429443359819e+00,-8.781931877136230469e+00,3.588908195495605025e+00,4.425048828125000000e+00,7.400512695312500000e-01,-7.934570312500000000e-01
1.049482369422912598e+01,-3.457227230072021040e+00,-8.781931877136230469e+00,3.895366191864013672e+00,4.425048828125000000e+00,7.400512695312500000e-01,-7.934570312500000000e-01
1.050693988800048828e+01,-3.090914249420166016e+00,-8.695740699768066406e+00,3.895366191864013672e+00,5.050659179687500000e+00,1.213073730468750000e+00,-1.144409179687500000e-01
1.052279233932495117e+01,-3.457227230072021040e+00,-8.482656478881835938e+00,4.041412353515625000e+00,7.194519042968750000e+00,-9.841918945312500000e-01,7.247924804687500000e-01
1.053671169281005859e+01,-3.090914249420166016e+00,-8.482656478881835938e+00,4.290409564971923828e+00,7.194519042968750000e+00,-3.356933593750000000e-01,1.792907714843750000e+00
1.054984331130981445e+01,-2.918531894683837891e+00,-8.482656478881835938e+00,4.290409564971923828e+00,2.746582031250000000e+00,-8.163452148437500000e-01,2.227783203125000000e+00
1.056479716300964355e+01,-2.918531894683837891e+00,-8.592789649963378906e+00,4.197035312652587891e+00,1.647949218750000000e+00,-3.356933593750000000e-01,2.227783203125000000e+00
1.057636356353759766e+01,-3.134010076522827148e+00,-8.355763435363769531e+00,4.103661537170410156e+00,1.647949218750000000e+00,-8.163452148437500000e-01,-2.365112304687500000e-01
1.059158325195312500e+01,-3.404554843902587891e+00,-8.592789649963378906e+00,4.031835556030273438e+00,2.655029296875000000e+00,-1.625061035156250000e+00,-2.365112304687500000e-01
1.060386061668395996e+01,-3.569754600524902344e+00,-8.355763435363769531e+00,4.031835556030273438e+00,8.056640625000000000e+00,-4.714965820312500000e+00,9.231567382812500000e-01
1.061812329292297363e+01,-3.569754600524902344e+00,-8.293514251708984375e+00,4.247313976287841797e+00,8.056640625000000000e+00,-1.625061035156250000e+00,9.231567382812500000e-01
1.063339352607727051e+01,-2.942473888397216797e+00,-8.293514251708984375e+00,4.424484729766845703e+00,5.760192871093750000e+00,-4.806518554687500000e-01,-1.091003417968750000e+00
1.064771533012390137e+01,-2.942473888397216797e+00,-8.518569946289062500e+00,4.424484729766845703e+00,5.760192871093750000e+00,-4.806518554687500000e-01,-1.091003417968750000e+00
1.065987563133239746e+01,-3.258508443832397017e+00,-8.595184326171875000e+00,4.424484729766845703e+00,7.659912109375000000e+00,-2.464294433593750000e+00,1.106262207031250000e+00
1.067152881622314453e+01,-4.007893562316895419e+00,-8.595184326171875000e+00,4.412513732910156250e+00,7.659912109375000000e+00,-3.883361816406250000e+00,3.608703613281250000e+00
1.068952155113220215e+01,-4.007893562316895419e+00,-8.547300338745117188e+00,4.939238071441650391e+00,4.287719726562500000e+00,-2.464294433593750000e+00,1.106262207031250000e+00
1.070024657249450684e+01,-3.878606796264647993e+00,-8.547300338745117188e+00,4.412513732910156250e+00,3.089904785156250000e+00,1.045227050781250000e+00,6.790161132812500000e-01
1.071386623382568359e+01,-2.341529130935668945e+00,-8.547300338745117188e+00,4.601655483245849609e+00,-6.637573242187500000e-01,1.045227050781250000e+00,-1.724243164062500000e+00
1.072846961021423340e+01,-3.315969228744506836e+00,-8.501810073852539062e+00,3.936067581176757812e+00,-1.457214355468750000e+00,8.506774902343750000e+00,-2.265930175781250000e+00
1.074124145507812500e+01,-2.997540473937988281e+00,-8.331821441650390625e+00,4.283226966857910156e+00,-2.639770507812500000e+00,1.068115234375000000e+00,-2.265930175781250000e+00
1.075550651550292969e+01,-3.315969228744506836e+00,-8.264783859252929688e+00,4.283226966857910156e+00,-2.639770507812500000e+00,7.354736328125000000e+00,-8.316040039062500000e-01
1.077070736885070801e+01,-3.591302394866943803e+00,-8.264783859252929688e+00,4.283226966857910156e+00,0.000000000000000000e+00,4.524230957031250000e+00,-8.316040039062500000e-01
1.078386783599853516e+01,-3.591302394866943803e+00,-8.264783859252929688e+00,4.158728122711181641e+00,3.707885742187500000e+00,4.524230957031250000e+00,-8.293151855468750000e+00
1.079458594322204590e+01,-3.016694068908691406e+00,-8.298302650451660156e+00,4.158728122711181641e+00,4.096984863281250000e+00,4.524230957031250000e+00,-8.583068847656250000e+00
1.081243538856506348e+01,-2.755726099014282227e+00,-8.271966934204101562e+00,4.297592163085937500e+00,4.096984863281250000e+00,3.372192382812500000e+00,-8.293151855468750000e+00
1.082900691032409668e+01,-2.755726099014282227e+00,-8.271966934204101562e+00,4.297592163085937500e+00,-1.373291015625000000e-01,6.118774414062500000e+00,-4.615783691406250000e+00
1.083979249000549316e+01,-3.014299869537353072e+00,-8.130708694458007812e+00,4.290409564971923828e+00,-1.167297363281250000e+00,4.425048828125000000e+00,-3.486633300781250000e+00
1.085412287712097168e+01,-3.014299869537353072e+00,-8.130708694458007812e+00,3.991134166717528853e+00,-1.167297363281250000e+00,4.425048828125000000e+00,-3.486633300781250000e+00
1.086512565612792969e+01,-3.002328872680664062e+00,-8.437166213989257812e+00,3.991134166717528853e+00,1.693725585937500000e+00,2.380371093750000000e+00,-2.883911132812500000e+00
1.087920117378234863e+01,-3.002328872680664062e+00,-8.437166213989257812e+00,4.235342502593994141e+00,2.288818359375000000e+00,-1.037597656250000000e+00,-2.822875976562500000e-01
1.089358448982238770e+01,-3.002328872680664062e+00,-8.322244644165039062e+00,4.326322555541992188e+00,1.838684082031250000e+00,-1.037597656250000000e+00,-2.822875976562500000e-01
1.090615248680114746e+01,-3.294421434402465820e+00,-8.322244644165039062e+00,4.235342502593994141e+00,1.838684082031250000e+00,1.243591308593750000e+00,-2.822875976562500000e-01
1.092160463333129883e+01,-3.189076662063598189e+00,-8.614337921142578125e+00,4.529829502105712891e+00,1.838684082031250000e+00,2.113342285156250000e+00,-9.384155273437500000e-01
1.093268251419067383e+01,-3.189076662063598189e+00,-8.614337921142578125e+00,4.309563159942626953e+00,3.662109375000000000e+00,1.243591308593750000e+00,2.319335937500000000e+00
1.094849228858947754e+01,-2.659958124160766602e+00,-8.224082946777343750e+00,4.529829502105712891e+00,6.324768066406250000e+00,-6.820678710937500000e+00,2.319335937500000000e+00
1.095992183685302734e+01,-2.463633537292480469e+00,-7.893682956695556641e+00,4.711788654327392578e+00,6.324768066406250000e+00,-9.994506835937500000e+00,6.362915039062500000e+00
1.097437500953674316e+01,-2.659958124160766602e+00,-7.893682956695556641e+00,4.711788654327392578e+00,6.324768066406250000e+00,-9.994506835937500000e+00,6.362915039062500000e+00
1.098705649375915527e+01,-1.036689281463623047e+00,-7.599195957183837891e+00,4.783615112304688388e+00,1.262664794921875000e+01,-4.763793945312500000e+01,3.065490722656250000e+01
1.100226759910583496e+01,-4.345476150512695312e+00,-6.428431510925292969e+00,8.169015884399414062e+00,1.262664794921875000e+01,-5.363464355468750000e+00,4.745483398437500000e+00
1.101365542411804199e+01,-1.628057122230529785e+00,-6.153098106384277344e+00,8.169015884399414062e+00,9.002685546875000000e+00,3.598785400390625000e+01,3.065490722656250000e+01
1.102910351753234863e+01,-4.376600742340087891e+00,-6.153098106384277344e+00,6.356605529785156250e+00,9.002685546875000000e+00,3.598785400390625000e+01,2.053833007812500000e+01
1.104082536697387695e+01,-1.628057122230529785e+00,-6.153098106384277344e+00,2.997540473937988281e+00,9.002685546875000000e+00,3.598785400390625000e+01,2.053833007812500000e+01
1.105645966529846191e+01,1.939303278923034113e-01,-6.799532890319824219e+00,2.997540473937988281e+00,-2.120971679687500000e+00,-2.909851074218750000e+01,2.053833007812500000e+01
1.107119035720825195e+01,1.939303278923034113e-01,-9.751583099365234375e+00,3.952826976776123047e+00,-2.120971679687500000e+00,3.484344482421875000e+01,-3.888702392578125000e+01
1.108325910568237305e+01,-2.592920303344726562e+00,-1.003649330139160156e+01,3.952826976776123047e+00,8.865356445312500000e+00,2.098083496093750000e+00,7.858276367187500000e+00
1.109763193130493164e+01,-2.592920303344726562e+00,-1.003649330139160156e+01,3.579331398010253906e+00,1.312255859375000000e+01,5.996704101562500000e+00,-1.922607421875000000e+00
1.110993432998657227e+01,-2.592920303344726562e+00,-9.169792175292968750e+00,3.579331398010253906e+00,1.312255859375000000e+01,2.098083496093750000e+00,-1.922607421875000000e+00
1.112542915344238281e+01,-2.839523077011108398e+00,-7.029376029968261719e+00,5.549759387969970703e+00,5.638122558593750000e+00,5.493164062500000000e-01,-3.639221191406250000e+00
1.113719820976257324e+01,-2.839523077011108398e+00,-7.029376029968261719e+00,5.549759387969970703e+00,2.204895019531250000e+00,5.493164062500000000e-01,-3.639221191406250000e+00
1.115289115905761719e+01,-2.655169725418090820e+00,-7.254431247711181641e+00,5.322310447692871094e+00,-6.500244140625000000e+00,1.518249511718750000e+00,-1.571655273437500000e+00
1.116360044479370117e+01,-2.655169725418090820e+00,-7.752425193786621094e+00,4.273650169372558594e+00,-6.500244140625000000e+00,5.714416503906250000e+00,8.392333984375000000e-01
1.117915606498718262e+01,-2.865859270095825195e+00,-7.922413349151611328e+00,4.122815132141113281e+00,-5.218505859375000000e+00,5.714416503906250000e+00,2.265930175781250000e+00
1.119468569755554199e+01,-3.758896589279174805e+00,-8.611943244934082031e+00,4.273650169372558594e+00,-3.211975097656250000e+00,1.228332519531250000e+00,2.265930175781250000e+00
1.120632553100585938e+01,-3.758896589279174805e+00,-8.429984092712402344e+00,4.369418144226074219e+00,2.487182617187500000e+00,-1.899719238281250000e+00,-3.013610839843750000e+00
1.122079730033874512e+01,-3.394978046417236328e+00,-8.429984092712402344e+00,4.376600742340087891e+00,5.706787109375000000e+00,-1.914978027343750000e+00,-3.013610839843750000e+00
1.123373556137084961e+01,-3.162740468978881836e+00,-8.274360656738281250e+00,4.508281707763671875e+00,5.706787109375000000e+00,-2.029418945312500000e+00,5.950927734375000000e-01
1.124769616127014160e+01,-3.162740468978881836e+00,-7.577648162841796875e+00,4.900930881500244141e+00,2.677917480468750000e+00,-1.914978027343750000e+00,1.502990722656250000e+00
1.126050734519958496e+01,-3.303998231887817383e+00,-7.577648162841796875e+00,4.900930881500244141e+00,-2.655029296875000000e+00,9.765625000000000000e-01,1.502990722656250000e+00
1.127735161781311035e+01,-3.303998231887817383e+00,-8.061277389526367188e+00,4.333505153656005859e+00,-4.638671875000000000e+00,3.875732421875000000e+00,-1.007080078125000000e+00
1.129037022590637207e+01,-3.488351821899414062e+00,-8.537723541259765625e+00,3.924096584320068803e+00,-4.638671875000000000e+00,3.875732421875000000e+00,-1.556396484375000000e+00
1.130253481864929199e+01,-3.464409828186035156e+00,-8.537723541259765625e+00,3.924096584320068803e+00,-1.213073730468750000e+00,2.479553222656250000e+00,-1.556396484375000000e+00
1.131945228576660156e+01,-3.464409828186035156e+00,-8.331821441650390625e+00,3.950432777404785156e+00,5.241394042968750000e+00,-3.204345703125000000e+00,3.814697265625000000e-01
1.133016872406005859e+01,-3.464409828186035156e+00,-8.164227485656738281e+00,4.335899353027343750e+00,5.241394042968750000e+00,-3.204345703125000000e+00,3.814697265625000000e-01
1.134450268745422363e+01,-3.296815633773804155e+00,-8.164227485656738281e+00,4.642356872558593750e+00,2.426147460937500000e+00,-3.120422363281250000e+00,-4.882812500000000000e-01
1.135805749893188477e+01,-3.059789657592772993e+00,-8.082824707031250000e+00,4.687846660614013672e+00,6.484985351562500000e-01,1.869201660156250000e+00,-8.773803710937500000e-01
1.137053322792053223e+01,-2.990357875823974609e+00,-8.322244644165039062e+00,4.687846660614013672e+00,-2.807617187500000000e+00,2.258300781250000000e+00,-8.773803710937500000e-01
1.138553118705749512e+01,-3.059789657592772993e+00,-8.300697326660156250e+00,4.328716754913330078e+00,-2.807617187500000000e+00,1.869201660156250000e+00,-9.155273437500000000e-02
1.140048670768737793e+01,-3.363853216171264648e+00,-8.389282226562500000e+00,4.127603530883789062e+00,-6.332397460937500000e-01,4.730224609375000000e-01,-9.155273437500000000e-02
1.141316461563110352e+01,-3.507505416870117188e+00,-8.300697326660156250e+00,4.106055736541748047e+00,2.059936523437500000e+00,-2.502441406250000000e+00,2.288818359375000000e-01
1.142497062683105469e+01,-3.363853216171264648e+00,-8.336609840393066406e+00,4.106055736541748047e+00,2.586364746093750000e+00,-1.487731933593750000e+00,-6.408691406250000000e-01
1.144243764877319336e+01,-3.100491046905517578e+00,-7.975085735321044922e+00,4.857835292816162109e+00,2.586364746093750000e+00,-1.487731933593750000e+00,2.059936523437500000e-01
1.145344877243041992e+01,-3.100491046905517578e+00,-8.180987358093261719e+00,4.946420669555664062e+00,1.472473144531250000e+00,-4.959106445312500000e-01,2.059936523437500000e-01
1.146757745742797852e+01,-3.280056238174438477e+00,-8.180987358093261719e+00,4.946420669555664062e+00,-3.814697265625000000e-01,-4.348754882812500000e-01,2.059936523437500000e-01
1.148143887519836426e+01,-3.332728624343872070e+00,-8.180987358093261719e+00,4.742913722991943359e+00,-1.968383789062500000e+00,1.762390136718750000e+00,-5.569458007812500000e-01
1.149396872520446777e+01,-3.332728624343872070e+00,-8.341398239135742188e+00,4.522646903991699219e+00,-2.632141113281250000e+00,1.762390136718750000e+00,-1.083374023437500000e+00
1.150903582572937012e+01,-3.459621429443359819e+00,-8.312667846679687500e+00,4.429273128509521484e+00,-2.632141113281250000e+00,1.747131347656250000e+00,-1.350402832031250000e+00
1.152328419685363770e+01,-3.332728624343872070e+00,-8.312667846679687500e+00,4.216188907623291016e+00,-2.365112304687500000e-01,1.602172851562500000e-01,-1.350402832031250000e+00
1.153643774986267090e+01,-3.385401248931884766e+00,-7.972691535949707031e+00,4.216188907623291016e+00,1.678466796875000000e+00,-9.460449218750000000e-01,-1.350402832031250000e+00
1.154801583290100098e+01,-3.205836057662963867e+00,-7.900865554809570312e+00,4.304774761199951172e+00,1.976013183593750000e+00,-1.129150390625000000e+00,4.653930664062500000e-01
1.156316423416137695e+01,-3.277662038803100586e+00,-7.900865554809570312e+00,4.426878929138183594e+00,1.678466796875000000e+00,-1.129150390625000000e+00,4.653930664062500000e-01
1.157734298706054688e+01,-3.277662038803100586e+00,-8.109161376953125000e+00,4.455609321594238281e+00,-6.561279296875000000e-01,6.561279296875000000e-01,-5.035400390625000000e-01
1.159042501449584961e+01,-3.301604032516479492e+00,-8.377311706542968750e+00,4.455609321594238281e+00,-1.083374023437500000e+00,1.632690429687500000e+00,-5.111694335937500000e-01
1.160458803176879883e+01,-3.301604032516479492e+00,-8.470685005187988281e+00,4.101267337799072266e+00,-1.083374023437500000e+00,1.632690429687500000e+00,-5.111694335937500000e-01
1.161708736419677734e+01,-3.301604032516479492e+00,-8.470685005187988281e+00,4.101267337799072266e+00,-2.670288085937500000e-01,-1.014709472656250000e+00,2.593994140625000000e-01
1.163263654708862305e+01,-3.450044631958007812e+00,-8.480262756347656250e+00,4.158728122711181641e+00,1.426696777343750000e+00,-1.014709472656250000e+00,2.593994140625000000e-01
1.164412164688110352e+01,-3.450044631958007812e+00,-8.480262756347656250e+00,4.254496574401856357e+00,2.204895019531250000e+00,-1.144409179687500000e+00,-8.392333984375000000e-02
1.165938448905944824e+01,-3.215412855148315430e+00,-8.334216117858886719e+00,4.254496574401856357e+00,2.204895019531250000e+00,-1.144409179687500000e+00,-5.798339843750000000e-01
1.167071461677551270e+01,-3.215412855148315430e+00,-8.274360656738281250e+00,4.254496574401856357e+00,1.617431640625000000e+00,-2.517700195312500000e+00,-8.392333984375000000e-02
1.168601655960083008e+01,-3.313575029373168945e+00,-8.240841865539550781e+00,4.347870349884033203e+00,6.866455078125000000e-01,-2.517700195312500000e+00,1.640319824218750000e+00
1.170145010948181152e+01,-3.313575029373168945e+00,-8.200140953063964844e+00,4.441244125366210938e+00,9.918212890625000000e-02,0.000000000000000000e+00,2.227783203125000000e+00
1.171334481239318848e+01,-3.059789657592772993e+00,-8.190564155578613281e+00,4.515464305877685547e+00,-1.296997070312500000e-01,8.087158203125000000e-01,1.640319824218750000e+00
1.172789931297302246e+01,-3.059789657592772993e+00,-8.190564155578613281e+00,4.967968463897705078e+00,-1.296997070312500000e-01,0.000000000000000000e+00,-1.167297363281250000e+00
1.173989915847778320e+01,-3.239354848861694336e+00,-8.166622161865234375e+00,5.020640850067138672e+00,9.307861328125000000e-01,8.087158203125000000e-01,-1.190185546875000000e+00
1.175485920906066895e+01,-3.239354848861694336e+00,-7.920019149780273438e+00,5.020640850067138672e+00,9.307861328125000000e-01,1.350402832031250000e+00,-1.167297363281250000e+00
1.176659870147705078e+01,-3.143586874008178711e+00,-7.920019149780273438e+00,4.613626480102539062e+00,2.059936523437500000e-01,1.350402832031250000e+00,-1.525878906250000000e-02
1.178293967247009277e+01,-3.143586874008178711e+00,-8.128314971923828125e+00,4.529829502105712891e+00,-1.876831054687500000e+00,1.266479492187500000e+00,-1.525878906250000000e-02
1.179779028892517090e+01,-3.143586874008178711e+00,-8.190564155578613281e+00,4.412513732910156250e+00,-1.876831054687500000e+00,1.266479492187500000e+00,-2.494812011718750000e+00
1.180903410911560059e+01,-3.172317266464233398e+00,-8.190564155578613281e+00,4.189852714538574219e+00,-3.585815429687500000e-01,1.266479492187500000e+00,-2.494812011718750000e+00
1.182493329048156738e+01,-3.394978046417236328e+00,-8.190564155578613281e+00,4.189852714538574219e+00,5.264282226562500000e-01,-1.068115234375000000e+00,-7.400512695312500000e-01
1.183535194396972656e+01,-3.394978046417236328e+00,-8.152256965637207031e+00,4.228159904479980469e+00,5.264282226562500000e-01,-1.068115234375000000e+00,-7.400512695312500000e-01
1.185083031654357910e+01,-3.215412855148315430e+00,-8.188169479370117188e+00,4.498704910278320312e+00,4.501342773437500000e-01,-1.228332519531250000e+00,-1.502990722656250000e+00
1.186394929885864258e+01,-3.215412855148315430e+00,-8.166622161865234375e+00,4.534617900848388672e+00,1.678466796875000000e-01,9.307861328125000000e-01,-1.541137695312500000e+00
1.187838912010192871e+01,-3.469198226928710938e+00,-8.166622161865234375e+00,4.534617900848388672e+00,-5.645751953125000000e-01,9.841918945312500000e-01,-1.541137695312500000e+00
1.189327883720397949e+01,-3.469198226928710938e+00,-8.159439086914062500e+00,4.232948303222656250e+00,-9.536743164062500000e-01,9.841918945312500000e-01,-1.068115234375000000e-01
1.190603756904602051e+01,-3.354276418685913086e+00,-8.159439086914062500e+00,4.225765705108642578e+00,-9.536743164062500000e-01,-5.340576171875000000e-02,6.866455078125000000e-01
1.192093658447265625e+01,-3.303998231887817383e+00,-8.224082946777343750e+00,4.079719543457031250e+00,-6.103515625000000000e-01,-2.670288085937500000e-01,1.258850097656250000e+00
1.193168163299560547e+01,-2.980781078338623047e+00,-8.336609840393066406e+00,4.079719543457031250e+00,1.747131347656250000e+00,-1.182556152343750000e+00,1.373291015625000000e+00
1.194949245452880859e+01,-2.980781078338623047e+00,-8.336609840393066406e+00,4.295197963714599609e+00,2.143859863281250000e+00,-2.670288085937500000e-01,1.373291015625000000e+00
1.196012258529663086e+01,-3.335122823715209961e+00,-8.248024940490722656e+00,4.486733913421630859e+00,2.143859863281250000e+00,-1.853942871093750000e+00,-1.815795898437500000e+00
1.197412800788879395e+01,-3.744531393051147905e+00,-7.766790390014648438e+00,4.627991676330566406e+00,1.113891601562500000e+00,-2.288818359375000000e-01,-1.815795898437500000e+00
1.199148678779602051e+01,-3.744531393051147905e+00,-7.766790390014648438e+00,4.656722068786621094e+00,7.858276367187500000e-01,-9.460449218750000000e-01,-1.014709472656250000e+00
1.200224208831787109e+01,-3.394978046417236328e+00,-8.140285491943359375e+00,4.656722068786621094e+00,7.858276367187500000e-01,-7.858276367187500000e-01,2.494812011718750000e+00
1.201587605476379395e+01,-3.394978046417236328e+00,-8.341398239135742188e+00,4.508281707763671875e+00,2.593994140625000000e-01,-7.858276367187500000e-01,2.494812011718750000e+00
1.203038859367370605e+01,-3.394978046417236328e+00,-8.341398239135742188e+00,4.501099109649658203e+00,6.103515625000000000e-02,6.103515625000000000e-02,2.052307128906250000e+00
1.204302167892456055e+01,-2.954444885253906250e+00,-8.523358345031738281e+00,4.311957359313964844e+00,2.593994140625000000e-01,6.103515625000000000e-02,2.365112304687500000e-01
1.205531191825866699e+01,-2.954444885253906250e+00,-8.171410560607910156e+00,4.311957359313964844e+00,1.678466796875000000e-01,-4.730224609375000000e-01,-8.010864257812500000e-01
1.207184457778930664e+01,-3.541024208068848100e+00,-8.171410560607910156e+00,4.400542736053466797e+00,1.678466796875000000e-01,-1.075744628906250000e+00,-2.044677734375000000e+00
1.208200931549072266e+01,-3.545812606811523438e+00,-8.101978302001953125e+00,4.400542736053466797e+00,1.678466796875000000e-01,-4.730224609375000000e-01,-2.044677734375000000e+00
1.209696793556213379e+01,-3.545812606811523438e+00,-8.101978302001953125e+00,4.441244125366210938e+00,3.585815429687500000e-01,-6.866455078125000000e-01,-4.196166992187500000e-01
1.211430048942565918e+01,-3.545812606811523438e+00,-8.169015884399414062e+00,4.345476150512695312e+00,3.585815429687500000e-01,3.890991210937500000e-01,9.155273437500000000e-01
1.212515950202941895e+01,-3.476380825042724609e+00,-8.346186637878417969e+00,4.345476150512695312e+00,2.212524414062500000e-01,-1.983642578125000000e-01,2.044677734375000000e+00
1.213936495780944824e+01,-3.098096847534180132e+00,-8.169015884399414062e+00,3.924096584320068803e+00,2.212524414062500000e-01,2.822875976562500000e-01,2.044677734375000000e+00
1.215327978134155273e+01,-3.019088268280029297e+00,-8.346186637878417969e+00,3.924096584320068803e+00,2.212524414062500000e-01,-1.983642578125000000e-01,2.273559570312500000e+00
1.216608858108520508e+01,-3.019088268280029297e+00,-8.382100105285644531e+00,4.218583106994628906e+00,-4.577636718750000000e-02,2.822875976562500000e-01,1.678466796875000000e+00
1.217812538146972656e+01,-3.064578056335449219e+00,-8.382100105285644531e+00,4.400542736053466797e+00,-4.577636718750000000e-02,4.730224609375000000e-01,-1.853942871093750000e+00
1.219350409507751465e+01,-3.064578056335449219e+00,-8.202534675598144531e+00,4.410119533538818359e+00,6.027221679687500000e-01,4.730224609375000000e-01,-1.853942871093750000e+00
1.220512104034423828e+01,-3.507505416870117188e+00,-8.202534675598144531e+00,4.453215122222900391e+00,8.392333984375000000e-01,3.128051757812500000e-01,1.983642578125000000e-01
1.222034621238708496e+01,-3.507505416870117188e+00,-8.379705429077148438e+00,4.481945514678955078e+00,1.083374023437500000e+00,3.128051757812500000e-01,1.983642578125000000e-01
1.223223519325256348e+01,-3.507505416870117188e+00,-8.379705429077148438e+00,4.481945514678955078e+00,1.083374023437500000e+00,8.392333984375000000e-01,2.746582031250000000e-01
1.224739837646484375e+01,-3.406949043273925781e+00,-8.331821441650390625e+00,4.273650169372558594e+00,1.083374023437500000e+00,8.392333984375000000e-01,2.746582031250000000e-01
1.226283884048461914e+01,-3.167528867721557617e+00,-8.295908927917480469e+00,4.273650169372558594e+00,7.476806640625000000e-01,-4.272460937500000000e-01,2.380371093750000000e+00
1.227398347854614258e+01,-3.167528867721557617e+00,-8.295908927917480469e+00,4.268861770629882812e+00,2.899169921875000000e-01,-1.190185546875000000e+00,2.380371093750000000e+00
1.228873229026794434e+01,-3.241749048233031782e+00,-8.295908927917480469e+00,4.390965938568115234e+00,-1.831054687500000000e-01,-4.272460937500000000e-01,1.235961914062500000e+00
1.230144715309143066e+01,-3.241749048233031782e+00,-8.061277389526367188e+00,4.381389141082763672e+00,-1.831054687500000000e-01,6.942749023437500000e-01,-6.866455078125000000e-02
1.231581950187683105e+01,-3.153163671493530273e+00,-8.391676902770996094e+00,4.623203277587890625e+00,8.010864257812500000e-01,6.942749023437500000e-01,-4.348754882812500000e-01
1.232791423797607422e+01,-3.153163671493530273e+00,-8.329427719116210938e+00,4.623203277587890625e+00,1.190185546875000000e+00,3.356933593750000000e-01,-7.476806640625000000e-01
1.234302282333374023e+01,-3.531447410583496094e+00,-8.329427719116210938e+00,4.623203277587890625e+00,8.010864257812500000e-01,3.356933593750000000e-01,-6.713867187500000000e-01
1.235799789428710938e+01,-3.531447410583496094e+00,-8.180987358093261719e+00,4.422090530395507812e+00,6.256103515625000000e-01,4.959106445312500000e-01,-7.476806640625000000e-01
1.236954021453857422e+01,-3.299209833145141602e+00,-8.180987358093261719e+00,4.422090530395507812e+00,5.035400390625000000e-01,4.959106445312500000e-01,-6.713867187500000000e-01
1.238481450080871582e+01,-3.299209833145141602e+00,-7.920019149780273438e+00,4.242525577545166016e+00,-5.416870117187500000e-01,4.959106445312500000e-01,2.899169921875000000e-01
1.239659810066223145e+01,-3.299209833145141602e+00,-8.252813339233398438e+00,4.551377296447753906e+00,-5.416870117187500000e-01,-1.152038574218750000e+00,2.212524414062500000e+00
1.241184782981872559e+01,-2.940079689025878906e+00,-8.334216117858886719e+00,4.273650169372558594e+00,-9.155273437500000000e-02,5.950927734375000000e-01,2.899169921875000000e-01
1.242553400993347168e+01,-2.940079689025878906e+00,-8.334216117858886719e+00,4.465186119079589844e+00,9.155273437500000000e-02,1.098632812500000000e+00,-8.468627929687500000e-01
1.243952536582946777e+01,-2.940079689025878906e+00,-8.283937454223632812e+00,4.364629745483398438e+00,9.155273437500000000e-02,1.098632812500000000e+00,-1.960754394531250000e+00
1.245492410659790039e+01,-3.102885246276855469e+00,-8.224082946777343750e+00,4.383783340454101562e+00,2.593994140625000000e-01,5.645751953125000000e-01,-1.960754394531250000e+00
1.246664142608642578e+01,-3.287238836288452148e+00,-8.164227485656738281e+00,4.383783340454101562e+00,-5.035400390625000000e-01,3.814697265625000000e-02,-1.022338867187500000e+00
1.248062968254089355e+01,-3.287238836288452148e+00,-8.164227485656738281e+00,4.548983097076416016e+00,3.509521484375000000e-01,-2.647399902343750000e+00,9.155273437500000000e-02
1.249389839172363281e+01,-3.318363428115844727e+00,-8.281543731689453125e+00,4.548983097076416016e+00,5.493164062500000000e-01,-2.647399902343750000e+00,7.247924804687500000e-01
1.250801992416381836e+01,-3.318363428115844727e+00,-8.377311706542968750e+00,4.481945514678955078e+00,5.493164062500000000e-01,1.960754394531250000e+00,7.247924804687500000e-01
1.252108454704284668e+01,-3.318363428115844727e+00,-8.377311706542968750e+00,4.462791919708251953e+00,3.280639648437500000e-01,1.960754394531250000e+00,-5.340576171875000000e-02
1.253763151168823242e+01,-3.406949043273925781e+00,-8.171410560607910156e+00,4.367023944854736328e+00,2.136230468750000000e-01,1.029968261718750000e+00,-5.340576171875000000e-02
1.255028176307678223e+01,-3.406949043273925781e+00,-8.171410560607910156e+00,4.462791919708251953e+00,2.136230468750000000e-01,-9.918212890625000000e-02,1.274108886718750000e+00
1.256227779388427734e+01,-3.375824451446533203e+00,-8.353369712829589844e+00,4.548983097076416016e+00,3.814697265625000000e-01,-9.231567382812500000e-01,1.274108886718750000e+00
1.257924151420593262e+01,-3.375824451446533203e+00,-8.353369712829589844e+00,4.548983097076416016e+00,7.553100585937500000e-01,-9.231567382812500000e-01,2.593994140625000000e-01
1.259030628204345703e+01,-3.375824451446533203e+00,-8.190564155578613281e+00,4.326322555541992188e+00,6.484985351562500000e-01,1.426696777343750000e+00,0.000000000000000000e+00
1.260420703887939453e+01,-3.303998231887817383e+00,-8.085219383239746094e+00,4.326322555541992188e+00,6.484985351562500000e-01,1.426696777343750000e+00,2.593994140625000000e-01
1.261848402023315430e+01,-3.059789657592772993e+00,-8.190564155578613281e+00,4.570530891418457031e+00,6.484985351562500000e-01,8.087158203125000000e-01,6.866455078125000000e-02
1.263156247138977051e+01,-3.303998231887817383e+00,-8.169015884399414062e+00,4.580107688903808594e+00,-8.392333984375000000e-02,-3.738403320312500000e-01,6.866455078125000000e-02
1.264671039581298828e+01,-3.366247415542602539e+00,-8.169015884399414062e+00,4.625597476959228516e+00,9.613037109375000000e-01,-6.103515625000000000e-02,6.866455078125000000e-02
1.266059708595275879e+01,-3.366247415542602539e+00,-8.169015884399414062e+00,4.580107688903808594e+00,9.613037109375000000e-01,-6.103515625000000000e-02,1.220703125000000000e-01
1.267382121086120605e+01,-3.289633035659790039e+00,-8.281543731689453125e+00,4.625597476959228516e+00,9.613037109375000000e-01,-6.103515625000000000e-02,1.220703125000000000e-01
1.268551063537597656e+01,-3.289633035659790039e+00,-8.319850921630859375e+00,4.556165695190429688e+00,-9.918212890625000000e-02,1.388549804687500000e+00,-6.866455078125000000e-01
1.270217275619506836e+01,-3.301604032516479492e+00,-8.451531410217285156e+00,4.546588897705078125e+00,-2.899169921875000000e-01,1.564025878906250000e+00,-1.266479492187500000e+00
1.271341156959533691e+01,-3.433285236358642578e+00,-8.451531410217285156e+00,4.240131378173828125e+00,-9.918212890625000000e-02,1.564025878906250000e+00,-1.266479492187500000e+00
1.272655797004699707e+01,-3.301604032516479492e+00,-8.118738174438476562e+00,4.175487518310546875e+00,1.754760742187500000e-01,2.288818359375000000e-02,2.059936523437500000e-01
1.274441456794738770e+01,-3.394978046417236328e+00,-8.046912193298339844e+00,4.240131378173828125e+00,2.975463867187500000e-01,-1.472473144531250000e+00,2.899169921875000000e-01
1.275442790985107422e+01,-3.394978046417236328e+00,-8.118738174438476562e+00,4.319139957427978516e+00,1.113891601562500000e+00,2.288818359375000000e-02,2.059936523437500000e-01
1.276947832107543945e+01,-3.394978046417236328e+00,-8.283937454223632812e+00,4.604049682617188388e+00,2.975463867187500000e-01,1.098632812500000000e+00,-1.632690429687500000e+00
1.278126358985900879e+01,-3.296815633773804155e+00,-8.283937454223632812e+00,4.604049682617188388e+00,3.051757812500000000e-01,1.098632812500000000e+00,-1.632690429687500000e+00
1.279550719261169434e+01,-3.263296842575072798e+00,-8.173804283142089844e+00,4.496310710906982422e+00,3.051757812500000000e-01,2.746582031250000000e-01,-3.204345703125000000e-01
1.280743861198425293e+01,-3.263296842575072798e+00,-8.073247909545898438e+00,4.496310710906982422e+00,3.204345703125000000e-01,-1.068115234375000000e+00,1.144409179687500000e-01
1.282294607162475586e+01,-3.282450437545776367e+00,-8.073247909545898438e+00,4.390965938568115234e+00,3.204345703125000000e-01,-1.121520996093750000e+00,1.144409179687500000e-01
1.283855676651000977e+01,-3.380612850189208984e+00,-8.192957878112792969e+00,4.489128112792968750e+00,-1.144409179687500000e-01,-1.068115234375000000e+00,-1.754760742187500000e-01
1.285024023056030273e+01,-3.380612850189208984e+00,-8.336609840393066406e+00,4.390965938568115234e+00,-1.144409179687500000e-01,-5.187988281250000000e-01,-3.128051757812500000e-01
1.286567115783691406e+01,-3.045424461364746094e+00,-8.336609840393066406e+00,4.395754337310791016e+00,9.384155273437500000e-01,-5.187988281250000000e-01,-1.754760742187500000e-01
1.287757086753845215e+01,-3.045424461364746094e+00,-8.288725852966308594e+00,4.340687751770020419e+00,9.384155273437500000e-01,-1.144409179687500000e+00,5.950927734375000000e-01
1.289147734642028809e+01,-3.371036052703857422e+00,-8.101978302001953125e+00,4.395754337310791016e+00,8.468627929687500000e-01,-1.144409179687500000e+00,5.950927734375000000e-01
1.290443801879882812e+01,-3.371036052703857422e+00,-8.066065788269042969e+00,4.434061527252197266e+00,5.111694335937500000e-01,-7.553100585937500000e-01,-1.281738281250000000e+00
1.291883921623229980e+01,-3.270479440689086914e+00,-7.999027729034423828e+00,4.479551315307617188e+00,4.425048828125000000e-01,-7.553100585937500000e-01,-1.281738281250000000e+00
1.293083763122558594e+01,-3.143586874008178711e+00,-7.999027729034423828e+00,4.498704910278320312e+00,2.212524414062500000e-01,-8.316040039062500000e-01,-4.425048828125000000e-01
1.294601368904113770e+01,-3.143586874008178711e+00,-7.999027729034423828e+00,4.611232280731201172e+00,2.212524414062500000e-01,-8.316040039062500000e-01,3.738403320312500000e-01
1.296132779121398926e+01,-3.402160644531250000e+00,-8.149862289428710938e+00,4.661510467529296875e+00,9.155273437500000000e-02,-7.705688476562500000e-01,3.738403320312500000e-01
1.297354936599731445e+01,-3.402160644531250000e+00,-8.212111473083496094e+00,4.661510467529296875e+00,6.103515625000000000e-02,-3.433227539062500000e-01,-1.220703125000000000e+00
1.298804020881652832e+01,-3.282450437545776367e+00,-8.212111473083496094e+00,4.467580318450927734e+00,9.155273437500000000e-02,-2.746582031250000000e-01,-1.220703125000000000e+00
1.300085520744323730e+01,-3.282450437545776367e+00,-8.248024940490722656e+00,4.223371505737304688e+00,4.653930664062500000e-01,-3.433227539062500000e-01,3.356933593750000000e-01
1.301484036445617676e+01,-3.294421434402465820e+00,-8.257601737976074219e+00,4.134786128997802734e+00,7.171630859375000000e-01,-1.174926757812500000e+00,3.356933593750000000e-01
1.303010463714599609e+01,-3.294421434402465820e+00,-8.257601737976074219e+00,4.134786128997802734e+00,7.171630859375000000e-01,-1.174926757812500000e+00,1.907348632812500000e-01
1.304269981384277344e+01,-3.177105665206909180e+00,-8.243236541748046875e+00,4.134786128997802734e+00,2.822875976562500000e-01,-6.866455078125000000e-02,-1.693725585937500000e+00
1.305670356750488281e+01,-3.177105665206909180e+00,-8.243236541748046875e+00,4.402936935424804688e+00,8.392333984375000000e-02,-6.866455078125000000e-02,-1.693725585937500000e+00
1.306894135475158691e+01,-3.308786630630493164e+00,-8.312667846679687500e+00,4.460397720336914062e+00,2.059936523437500000e-01,2.212524414062500000e-01,-4.882812500000000000e-01
1.308503818511962891e+01,-3.418920040130615234e+00,-8.312667846679687500e+00,4.460397720336914062e+00,1.983642578125000000e-01,-1.670837402343750000e+00,-4.882812500000000000e-01
1.309912800788879395e+01,-3.418920040130615234e+00,-8.255207061767578125e+00,4.302380561828613281e+00,2.059936523437500000e-01,-1.670837402343750000e+00,-5.111694335937500000e-01
1.311089158058166504e+01,-3.354276418685913086e+00,-8.255207061767578125e+00,4.302380561828613281e+00,2.670288085937500000e-01,-1.670837402343750000e+00,-5.111694335937500000e-01
1.312751269340515137e+01,-3.126827478408813032e+00,-8.180987358093261719e+00,4.546588897705078125e+00,8.239746093750000000e-01,-3.356933593750000000e-01,1.373291015625000000e-01
1.313828611373901367e+01,-3.126827478408813032e+00,-8.180987358093261719e+00,4.546588897705078125e+00,8.239746093750000000e-01,2.822875976562500000e-01,1.373291015625000000e-01
1.315358424186706543e+01,-3.270479440689086914e+00,-8.070854187011718750e+00,4.436455726623535156e+00,-1.220703125000000000e-01,-2.059936523437500000e-01,-3.509521484375000000e-01
1.317082548141479492e+01,-3.270479440689086914e+00,-8.070854187011718750e+00,4.393360137939453125e+00,-3.890991210937500000e-01,-1.373291015625000000e-01,-3.509521484375000000e-01
1.318201637268066406e+01,-3.330334424972534180e+00,-8.274360656738281250e+00,4.393360137939453125e+00,-3.890991210937500000e-01,-1.373291015625000000e-01,-2.288818359375000000e-01
1.319559764862060547e+01,-3.191470861434936523e+00,-8.274360656738281250e+00,4.410119533538818359e+00,8.468627929687500000e-01,-1.373291015625000000e-01,7.171630859375000000e-01
1.320953631401062012e+01,-3.387795448303222656e+00,-8.185775756835937500e+00,4.424484729766845703e+00,9.613037109375000000e-01,-2.288818359375000000e-01,7.171630859375000000e-01
1.322254347801208496e+01,-3.366247415542602539e+00,-8.159439086914062500e+00,4.604049682617188388e+00,9.613037109375000000e-01,-2.288818359375000000e-01,-9.460449218750000000e-01
1.323442006111145020e+01,-3.366247415542602539e+00,-8.111555099487304688e+00,4.771644115447998047e+00,4.501342773437500000e-01,5.035400390625000000e-01,-9.460449218750000000e-01
1.325155568122863770e+01,-3.205836057662963867e+00,-8.111555099487304688e+00,4.771644115447998047e+00,9.155273437500000000e-02,5.035400390625000000e-01,-1.754760742187500000e-01
1.326353430747985840e+01,-3.205836057662963867e+00,-8.173804283142089844e+00,4.635174274444580078e+00,-6.179809570312500000e-01,3.204345703125000000e-01,4.272460937500000000e-01
1.327546954154968262e+01,-3.251325845718383789e+00,-8.291120529174804688e+00,4.474762916564941406e+00,-6.179809570312500000e-01,3.204345703125000000e-01,4.272460937500000000e-01
1.329344058036804199e+01,-3.315969228744506836e+00,-8.329427719116210938e+00,4.429273128509521484e+00,-4.043579101562500000e-01,3.204345703125000000e-01,7.629394531250000000e-02
1.330410957336425781e+01,-3.315969228744506836e+00,-8.329427719116210938e+00,4.414907932281494141e+00,-3.738403320312500000e-01,2.975463867187500000e-01,7.629394531250000000e-02
