# elapsed time, f1_acc_x, f1_acc_y, f1_acc_z, f1_gyro_x, f1_gyro_y, f1_gyro_z
3.991942405700683594e+00,-4.438849925994873047e+00,1.963245421648024958e-01,-1.108515357971191406e+01,-4.150390625000000000e+00,-4.646301269531250000e+00,1.960754394531250000e+00
4.002638339996337891e+00,-4.438849925994873047e+00,1.963245421648024958e-01,-1.108515357971191406e+01,-4.150390625000000000e+00,-4.646301269531250000e+00,1.960754394531250000e+00
4.015084981918334961e+00,-4.438849925994873047e+00,1.963245421648024958e-01,-1.108515357971191406e+01,-4.150390625000000000e+00,-4.646301269531250000e+00,1.960754394531250000e+00
4.026031255722045898e+00,-4.438849925994873047e+00,1.963245421648024958e-01,-1.108515357971191406e+01,-4.150390625000000000e+00,-4.646301269531250000e+00,1.960754394531250000e+00
4.037315368652343750e+00,-4.438849925994873047e+00,1.963245421648024958e-01,-1.108515357971191406e+01,-4.150390625000000000e+00,-4.646301269531250000e+00,1.960754394531250000e+00
4.048866033554077148e+00,-4.438849925994873047e+00,1.963245421648024958e-01,-1.108515357971191406e+01,-4.150390625000000000e+00,-4.646301269531250000e+00,1.960754394531250000e+00
4.059379577636718750e+00,-4.438849925994873047e+00,1.963245421648024958e-01,-1.108515357971191406e+01,-4.150390625000000000e+00,-4.646301269531250000e+00,1.960754394531250000e+00
4.071174860000610352e+00,-4.438849925994873047e+00,1.963245421648024958e-01,-1.108515357971191406e+01,-4.150390625000000000e+00,-4.646301269531250000e+00,1.960754394531250000e+00
4.083951234817504883e+00,-4.438849925994873047e+00,1.963245421648024958e-01,-1.108515357971191406e+01,-4.150390625000000000e+00,-4.646301269531250000e+00,1.960754394531250000e+00
4.094752550125122070e+00,-4.438849925994873047e+00,1.963245421648024958e-01,-1.108515357971191406e+01,-4.150390625000000000e+00,-4.646301269531250000e+00,1.960754394531250000e+00
4.106416225433349609e+00,-4.438849925994873047e+00,1.963245421648024958e-01,-1.108515357971191406e+01,-4.150390625000000000e+00,-4.646301269531250000e+00,1.960754394531250000e+00
4.117247104644775391e+00,-4.438849925994873047e+00,1.963245421648024958e-01,-1.108515357971191406e+01,-4.150390625000000000e+00,-4.646301269531250000e+00,1.960754394531250000e+00
4.128347873687744141e+00,-4.438849925994873047e+00,1.963245421648024958e-01,-1.108515357971191406e+01,-4.150390625000000000e+00,-4.646301269531250000e+00,1.960754394531250000e+00
4.139892101287841797e+00,-4.438849925994873047e+00,1.963245421648024958e-01,-1.108515357971191406e+01,-4.150390625000000000e+00,-4.646301269531250000e+00,1.960754394531250000e+00
4.151065349578857422e+00,-4.438849925994873047e+00,1.963245421648024958e-01,-1.108515357971191406e+01,-4.150390625000000000e+00,-4.646301269531250000e+00,1.960754394531250000e+00
4.163273572921752930e+00,-4.438849925994873047e+00,1.963245421648024958e-01,-1.108515357971191406e+01,-4.150390625000000000e+00,-4.646301269531250000e+00,1.960754394531250000e+00
4.174376487731933594e+00,-4.438849925994873047e+00,1.963245421648024958e-01,-1.108515357971191406e+01,-4.150390625000000000e+00,-4.646301269531250000e+00,1.960754394531250000e+00
4.184888839721679688e+00,-4.438849925994873047e+00,1.963245421648024958e-01,-1.108515357971191406e+01,-4.150390625000000000e+00,-4.646301269531250000e+00,1.960754394531250000e+00
4.196320295333862305e+00,-4.438849925994873047e+00,1.963245421648024958e-01,-1.108515357971191406e+01,-4.150390625000000000e+00,-4.646301269531250000e+00,1.960754394531250000e+00
4.207332372665405273e+00,-4.438849925994873047e+00,1.963245421648024958e-01,-1.108515357971191406e+01,-4.150390625000000000e+00,-4.646301269531250000e+00,1.960754394531250000e+00
4.219230651855468750e+00,-4.438849925994873047e+00,1.963245421648024958e-01,-1.108515357971191406e+01,-4.150390625000000000e+00,-4.646301269531250000e+00,1.960754394531250000e+00
4.232319831848144531e+00,-4.438849925994873047e+00,1.963245421648024958e-01,-1.108515357971191406e+01,-4.150390625000000000e+00,-4.646301269531250000e+00,1.960754394531250000e+00
4.244462490081787109e+00,-4.438849925994873047e+00,1.963245421648024958e-01,-1.108515357971191406e+01,-4.150390625000000000e+00,-4.646301269531250000e+00,1.960754394531250000e+00
4.253968238830566406e+00,-4.438849925994873047e+00,1.963245421648024958e-01,-1.108515357971191406e+01,-4.150390625000000000e+00,-4.646301269531250000e+00,1.960754394531250000e+00
4.264480829238891602e+00,-4.438849925994873047e+00,1.963245421648024958e-01,-1.108515357971191406e+01,-4.150390625000000000e+00,-4.646301269531250000e+00,1.960754394531250000e+00
4.276636838912963867e+00,-4.438849925994873047e+00,1.963245421648024958e-01,-1.108515357971191406e+01,-4.150390625000000000e+00,-4.646301269531250000e+00,1.960754394531250000e+00
4.288697719573974609e+00,-4.438849925994873047e+00,1.963245421648024958e-01,-1.108515357971191406e+01,-4.150390625000000000e+00,-4.646301269531250000e+00,1.960754394531250000e+00
4.301023960113525391e+00,-4.438849925994873047e+00,1.963245421648024958e-01,-1.108515357971191406e+01,-4.150390625000000000e+00,-4.646301269531250000e+00,1.960754394531250000e+00
4.312976121902465820e+00,-4.438849925994873047e+00,1.963245421648024958e-01,-1.108515357971191406e+01,-4.150390625000000000e+00,-4.646301269531250000e+00,1.960754394531250000e+00
4.323923587799072266e+00,-4.438849925994873047e+00,1.963245421648024958e-01,-1.108515357971191406e+01,-4.150390625000000000e+00,-4.646301269531250000e+00,1.960754394531250000e+00
4.335161209106445312e+00,-4.438849925994873047e+00,1.963245421648024958e-01,-1.108515357971191406e+01,-4.150390625000000000e+00,-4.646301269531250000e+00,1.960754394531250000e+00
4.345686674118041992e+00,-4.438849925994873047e+00,1.963245421648024958e-01,-1.108515357971191406e+01,-4.150390625000000000e+00,-4.646301269531250000e+00,1.960754394531250000e+00
4.358160495758056641e+00,-4.438849925994873047e+00,1.963245421648024958e-01,-1.108515357971191406e+01,-4.150390625000000000e+00,-4.646301269531250000e+00,1.960754394531250000e+00
4.369158029556274414e+00,-4.438849925994873047e+00,1.963245421648024958e-01,-1.108515357971191406e+01,-4.150390625000000000e+00,-4.646301269531250000e+00,1.960754394531250000e+00
4.382116317749023438e+00,-4.438849925994873047e+00,1.963245421648024958e-01,-1.108515357971191406e+01,-4.150390625000000000e+00,-4.646301269531250000e+00,1.960754394531250000e+00
4.392842292785644531e+00,-4.438849925994873047e+00,1.963245421648024958e-01,-1.108515357971191406e+01,-4.150390625000000000e+00,-4.646301269531250000e+00,1.960754394531250000e+00
4.404176473617553711e+00,-4.438849925994873047e+00,1.963245421648024958e-01,-1.108515357971191406e+01,-4.150390625000000000e+00,-4.646301269531250000e+00,1.960754394531250000e+00
4.415132045745849609e+00,-4.438849925994873047e+00,1.963245421648024958e-01,-1.108515357971191406e+01,-4.150390625000000000e+00,-4.646301269531250000e+00,1.960754394531250000e+00
4.426886320114135742e+00,-4.438849925994873047e+00,1.963245421648024958e-01,-1.108515357971191406e+01,-4.150390625000000000e+00,-4.646301269531250000e+00,1.960754394531250000e+00
4.438760757446289062e+00,-4.438849925994873047e+00,1.963245421648024958e-01,-1.108515357971191406e+01,-4.150390625000000000e+00,-4.646301269531250000e+00,1.960754394531250000e+00
4.450220346450805664e+00,-4.438849925994873047e+00,1.963245421648024958e-01,-1.108515357971191406e+01,-4.150390625000000000e+00,-4.646301269531250000e+00,1.960754394531250000e+00
4.461239099502563477e+00,-4.438849925994873047e+00,1.963245421648024958e-01,-1.108515357971191406e+01,-4.150390625000000000e+00,-4.646301269531250000e+00,1.960754394531250000e+00
4.474856853485107422e+00,-4.438849925994873047e+00,1.963245421648024958e-01,-1.108515357971191406e+01,-4.150390625000000000e+00,-4.646301269531250000e+00,1.960754394531250000e+00
4.485753774642944336e+00,-4.438849925994873047e+00,1.963245421648024958e-01,-1.108515357971191406e+01,-4.150390625000000000e+00,-4.646301269531250000e+00,1.960754394531250000e+00
4.496260404586791992e+00,-4.438849925994873047e+00,1.963245421648024958e-01,-1.108515357971191406e+01,-4.150390625000000000e+00,-4.646301269531250000e+00,1.960754394531250000e+00
4.510051727294921875e+00,-4.438849925994873047e+00,1.963245421648024958e-01,-1.108515357971191406e+01,-4.150390625000000000e+00,-4.646301269531250000e+00,1.960754394531250000e+00
4.521056413650512695e+00,-4.438849925994873047e+00,1.963245421648024958e-01,-1.108515357971191406e+01,-4.150390625000000000e+00,-4.646301269531250000e+00,1.960754394531250000e+00
4.532196760177612305e+00,-4.438849925994873047e+00,1.963245421648024958e-01,-1.108515357971191406e+01,-4.150390625000000000e+00,-4.646301269531250000e+00,1.960754394531250000e+00
4.544384479522705078e+00,-4.438849925994873047e+00,1.963245421648024958e-01,-1.108515357971191406e+01,-4.150390625000000000e+00,-4.646301269531250000e+00,1.960754394531250000e+00
4.555582761764526367e+00,-4.438849925994873047e+00,1.963245421648024958e-01,-1.108515357971191406e+01,-4.150390625000000000e+00,-4.646301269531250000e+00,1.960754394531250000e+00
4.566466331481933594e+00,-4.438849925994873047e+00,1.963245421648024958e-01,-1.108515357971191406e+01,-4.150390625000000000e+00,-4.646301269531250000e+00,1.960754394531250000e+00
4.579067468643188477e+00,-4.438849925994873047e+00,1.963245421648024958e-01,-1.108515357971191406e+01,-4.150390625000000000e+00,-4.646301269531250000e+00,1.960754394531250000e+00
4.590559482574462891e+00,-4.438849925994873047e+00,1.963245421648024958e-01,-1.108515357971191406e+01,-4.150390625000000000e+00,-4.646301269531250000e+00,1.960754394531250000e+00
4.601737499237060547e+00,-4.438849925994873047e+00,1.963245421648024958e-01,-1.108515357971191406e+01,-4.150390625000000000e+00,-4.646301269531250000e+00,1.960754394531250000e+00
4.613701105117797852e+00,-4.438849925994873047e+00,1.963245421648024958e-01,-1.108515357971191406e+01,-4.150390625000000000e+00,-4.646301269531250000e+00,1.960754394531250000e+00
4.626584053039550781e+00,-4.438849925994873047e+00,1.963245421648024958e-01,-1.108515357971191406e+01,-4.150390625000000000e+00,-4.646301269531250000e+00,1.960754394531250000e+00
4.748508453369140625e+00,-4.438849925994873047e+00,1.963245421648024958e-01,-1.108515357971191406e+01,-4.150390625000000000e+00,-4.646301269531250000e+00,1.960754394531250000e+00
4.967389822006225586e+00,-4.438849925994873047e+00,1.963245421648024958e-01,-1.108515357971191406e+01,-4.150390625000000000e+00,-4.646301269531250000e+00,1.960754394531250000e+00
4.984381914138793945e+00,-4.438849925994873047e+00,-6.983886241912841797e+00,-6.888118267059326172e+00,1.992111206054687500e+02,2.426147460937500000e+01,1.960754394531250000e+00
4.996749877929687500e+00,-8.331821560859680176e-01,-7.113173007965087891e+00,-6.888118267059326172e+00,2.046890258789062500e+02,2.426147460937500000e+01,-5.527496337890625000e+01
5.012131690979003906e+00,-2.039859771728516069e+00,-8.295908927917480469e+00,-5.659892559051513672e+00,2.046890258789062500e+02,1.970672607421875000e+01,-5.527496337890625000e+01
5.026723861694335938e+00,-2.039859771728516069e+00,-8.425195693969726562e+00,-5.659892559051513672e+00,2.062911987304687500e+02,-5.683898925781250000e+00,-3.564453125000000000e+01
5.038455247879028320e+00,-2.039859771728516069e+00,-8.425195693969726562e+00,-4.903325080871582031e+00,2.105789184570312500e+02,-5.683898925781250000e+00,-3.564453125000000000e+01
5.053773164749145508e+00,-2.612073898315429688e+00,-8.468291282653808594e+00,-2.944868087768554688e+00,2.105789184570312500e+02,-6.507873535156250000e+00,-3.564453125000000000e+01
5.065164804458618164e+00,-2.612073898315429688e+00,-8.676587104797363281e+00,-2.944868087768554688e+00,2.175216674804687500e+02,-8.544921875000000000e+00,-2.094268798828125000e+01
5.080749988555908203e+00,-2.612073898315429688e+00,-8.468291282653808594e+00,-2.904166698455810547e+00,2.178039550781250000e+02,-8.544921875000000000e+00,-2.094268798828125000e+01
5.092345952987670898e+00,-2.992752075195312500e+00,-7.927201747894287109e+00,-1.537077426910400391e+00,2.215270996093750000e+02,-8.972167968750000000e+00,-3.188323974609375000e+01
5.107608795166015625e+00,-2.609679698944091797e+00,-7.927201747894287109e+00,-1.537077426910400391e+00,2.215270996093750000e+02,-4.356384277343750000e+00,-3.188323974609375000e+01
5.119678020477294922e+00,-3.153163671493530273e+00,-9.093177795410156250e+00,1.991975784301757590e+00,9.838104248046876421e+01,-2.258300781250000000e+00,-3.188323974609375000e+01
5.135255098342895508e+00,-3.699041604995727983e+00,-9.835380554199220526e+00,-1.498770236968993919e+00,1.065826416015625000e+01,-2.258300781250000000e+00,-1.815032958984375000e+01
5.149306774139404297e+00,-3.699041604995727983e+00,-9.255983352661132812e+00,-1.498770236968993919e+00,1.065826416015625000e+01,-2.258300781250000000e+00,-1.578521728515625000e+01
5.162223577499389648e+00,-3.253720045089721680e+00,-9.835380554199220526e+00,-1.498770236968993919e+00,2.571868896484375000e+01,4.600524902343750000e+00,-9.826660156250000000e+00
5.176694154739379883e+00,-2.975992679595947710e+00,-9.428365707397459161e+00,-1.821987509727478027e+00,2.913665771484375000e+01,4.600524902343750000e+00,-9.513854980468750000e+00
5.189040184020996094e+00,-2.207453966140747070e+00,-9.612719535827636719e+00,-8.068459630012512207e-01,3.520202636718750000e+01,4.913330078125000000e+00,-9.513854980468750000e+00
5.203715562820434570e+00,-2.315192937850952148e+00,-9.612719535827636719e+00,-7.182605266571044922e-01,4.125213623046875000e+01,4.913330078125000000e+00,-1.203918457031250000e+01
5.215912580490112305e+00,-2.207453966140747070e+00,-9.617507934570312500e+00,-7.134720683097839355e-01,4.125213623046875000e+01,4.913330078125000000e+00,-1.203918457031250000e+01
5.230965852737426758e+00,-1.551442623138427512e+00,-1.009395408630371271e+01,-7.134720683097839355e-01,3.799438476562500000e+01,8.293151855468750000e+00,-1.132965087890625000e+01
5.245792388916015625e+00,-1.371877551078796387e+00,-1.023760604858398438e+01,-1.173158809542655945e-01,3.183746337890625000e+01,4.844665527343750000e+00,-8.728027343750000000e+00
5.257841825485229492e+00,-1.371877551078796387e+00,-1.023760604858398438e+01,-1.173158809542655945e-01,2.182769775390625000e+01,9.307861328125000000e-01,-2.059936523437500000e+00
5.274979352951049805e+00,-1.771709203720092773e+00,-9.959878921508787286e+00,-1.173158809542655945e-01,6.355285644531250000e+00,-5.264282226562500000e-01,-9.078979492187500000e-01
5.285293817520141602e+00,-1.771709203720092773e+00,-9.907206535339355469e+00,-2.920925915241240900e-01,-3.646850585937500000e+00,2.288818359375000000e-01,-4.806518554687500000e-01
5.300421714782714844e+00,-1.690306425094604492e+00,-9.959878921508787286e+00,-6.033388376235961914e-01,-3.646850585937500000e+00,-5.187988281250000000e-01,-4.806518554687500000e-01
5.314048051834106445e+00,-1.690306425094604492e+00,-9.907206535339355469e+00,-6.033388376235961914e-01,-1.083374023437500000e+00,-5.187988281250000000e-01,2.059936523437500000e+00
5.326454162597656250e+00,-1.616086125373840332e+00,-9.732429504394531250e+00,-4.309563040733336847e-01,-1.083374023437500000e+00,-7.095336914062500000e-01,2.059936523437500000e+00
5.341420888900756836e+00,-1.731007814407348633e+00,-9.701305389404296875e+00,-3.591302633285521906e-01,-2.227783203125000000e+00,-7.095336914062500000e-01,1.251220703125000000e+00
5.356001853942871094e+00,-1.640028119087219238e+00,-9.701305389404296875e+00,-3.591302633285521906e-01,-4.699707031250000000e+00,-4.577636718750000000e-02,-2.365112304687500000e-01
5.369352579116821289e+00,-1.709460020065307617e+00,-9.911994934082031250e+00,-5.243301391601562500e-01,-4.699707031250000000e+00,-4.577636718750000000e-02,-2.365112304687500000e-01
5.380377769470214844e+00,-1.640028119087219238e+00,-9.911994934082031250e+00,-5.243301391601562500e-01,-1.800537109375000000e+00,-6.866455078125000000e-02,1.914978027343750000e+00
5.398161172866821289e+00,-1.709460020065307617e+00,-9.832985877990724433e+00,-3.711012601852416992e-01,-1.800537109375000000e+00,-4.577636718750000000e-01,1.968383789062500000e+00
5.409402370452880859e+00,-1.620874524116515891e+00,-9.832985877990724433e+00,-2.466027736663818082e-01,-3.585815429687500000e+00,-6.866455078125000000e-02,1.968383789062500000e+00
5.423329830169677734e+00,-1.795651197433471680e+00,-9.804255485534667969e+00,-2.466027736663818082e-01,-3.913879394531250000e+00,-4.348754882812500000e-01,2.212524414062500000e-01
5.440324544906616211e+00,-1.742978811264038086e+00,-9.849745750427246094e+00,-4.309563040733336847e-01,-3.913879394531250000e+00,3.814697265625000000e-02,2.212524414062500000e-01
5.451555252075195312e+00,-1.778891801834106445e+00,-9.837774276733398438e+00,-4.309563040733336847e-01,-2.601623535156250000e+00,8.468627929687500000e-01,3.738403320312500000e-01
5.465116500854492188e+00,-1.778891801834106445e+00,-9.861716270446775567e+00,-2.681505978107451837e-01,-2.601623535156250000e+00,8.544921875000000000e-01,3.738403320312500000e-01
5.479197025299072266e+00,-1.788468599319458008e+00,-9.837774276733398438e+00,-2.681505978107451837e-01,-4.112243652343750000e+00,8.468627929687500000e-01,3.967285156250000000e-01
5.491991758346557617e+00,-1.788468599319458008e+00,-9.821015357971191406e+00,-4.118026793003082275e-01,-4.112243652343750000e+00,5.187988281250000000e-01,3.967285156250000000e-01
5.506841659545898438e+00,-1.788468599319458008e+00,-9.821015357971191406e+00,-4.118026793003082275e-01,-2.868652343750000000e+00,-7.247924804687500000e-01,1.174926757812500000e+00
5.521229028701782227e+00,-1.814804911613464355e+00,-9.823409080505372870e+00,-3.639186620712280273e-01,-2.754211425781250000e+00,-7.247924804687500000e-01,1.174926757812500000e+00
5.533645868301391602e+00,-1.821987509727478027e+00,-9.823409080505372870e+00,-3.639186620712280273e-01,-2.754211425781250000e+00,-1.449584960937500000e-01,4.882812500000000000e-01
5.545212507247924805e+00,-1.821987509727478027e+00,-9.801861763000488281e+00,-4.213795065879821777e-01,-3.677368164062500000e+00,-6.103515625000000000e-02,-1.602172851562500000e-01
5.560249567031860352e+00,-1.795651197433471680e+00,-9.801861763000488281e+00,-4.213795065879821777e-01,-3.677368164062500000e+00,-6.103515625000000000e-02,-1.602172851562500000e-01
5.572854757308959961e+00,-1.766920804977416992e+00,-9.892841339111328125e+00,-3.974374830722808838e-01,-3.181457519531250000e+00,-2.136230468750000000e-01,1.121520996093750000e+00
5.588133573532104492e+00,-1.733402013778686301e+00,-9.902418136596679688e+00,-3.687070608139038086e-01,-3.181457519531250000e+00,-1.106262207031250000e+00,1.617431640625000000e+00
5.602887868881225586e+00,-1.766920804977416992e+00,-9.892841339111328125e+00,-3.902548849582672119e-01,-3.730773925781250000e+00,-1.106262207031250000e+00,1.617431640625000000e+00
5.614997625350952148e+00,-1.733402013778686301e+00,-9.861716270446775567e+00,-3.902548849582672119e-01,-4.028320312500000000e+00,-9.994506835937500000e-01,7.400512695312500000e-01
5.629266977310180664e+00,-1.781286001205444336e+00,-9.861716270446775567e+00,-3.902548849582672119e-01,-4.028320312500000000e+00,4.730224609375000000e-01,4.730224609375000000e-01
5.641283750534057617e+00,-1.786074399948119895e+00,-9.861716270446775567e+00,-3.854664564132689875e-01,-3.364562988281250000e+00,4.730224609375000000e-01,4.730224609375000000e-01
5.656976938247680664e+00,-1.786074399948119895e+00,-9.794678688049316406e+00,-3.830722570419310968e-01,-3.364562988281250000e+00,3.890991210937500000e-01,6.790161132812500000e-01
5.669103145599365234e+00,-1.716642618179321289e+00,-9.794678688049316406e+00,-3.854664564132689875e-01,-3.601074218750000000e+00,-9.155273437500000000e-02,6.790161132812500000e-01
5.683363676071166992e+00,-1.716642618179321289e+00,-9.880869865417480469e+00,-4.118026793003082275e-01,-3.601074218750000000e+00,-1.983642578125000000e-01,5.187988281250000000e-01
5.699318885803222656e+00,-1.740584611892700195e+00,-9.880869865417480469e+00,-4.118026793003082275e-01,-3.425598144531250000e+00,-9.155273437500000000e-02,4.119873046875000000e-01
5.710845947265625000e+00,-1.762132406234741211e+00,-9.818620681762695312e+00,-4.022258818149566095e-01,-3.219604492187500000e+00,-7.629394531250000000e-02,3.890991210937500000e-01
5.725865602493286133e+00,-1.740584611892700195e+00,-9.775525093078611505e+00,-4.022258818149566095e-01,-3.219604492187500000e+00,1.525878906250000000e-02,1.144409179687500000e-01
5.738412618637084961e+00,-1.762132406234741211e+00,-9.785101890563964844e+00,-4.525041282176970880e-01,-3.959655761718750000e+00,4.577636718750000000e-02,1.144409179687500000e-01
5.753139495849609375e+00,-1.769315004348754883e+00,-9.785101890563964844e+00,-4.525041282176970880e-01,-3.959655761718750000e+00,2.975463867187500000e-01,4.882812500000000000e-01
5.764268398284912109e+00,-1.795651197433471680e+00,-9.785101890563964844e+00,-4.453215003013610840e-01,-3.601074218750000000e+00,2.975463867187500000e-01,8.544921875000000000e-01
5.780119895935058594e+00,-1.769315004348754883e+00,-9.828197479248048651e+00,-4.165910780429840088e-01,-3.601074218750000000e+00,-1.754760742187500000e-01,1.403808593750000000e+00
5.791885614395141602e+00,-1.795651197433471680e+00,-9.732429504394531250e+00,-4.165910780429840088e-01,-3.738403320312500000e+00,-4.119873046875000000e-01,1.403808593750000000e+00
5.806688070297241211e+00,-1.807622194290160911e+00,-9.792284965515136719e+00,-3.926490843296051025e-01,-4.058837890625000000e+00,-1.754760742187500000e-01,5.493164062500000000e-01
5.818534374237060547e+00,-1.807622194290160911e+00,-9.792284965515136719e+00,-3.926490843296051025e-01,-4.058837890625000000e+00,1.525878906250000000e-01,5.035400390625000000e-01
5.833903074264526367e+00,-1.781286001205444336e+00,-9.797073364257812500e+00,-3.926490843296051025e-01,-3.623962402343750000e+00,2.899169921875000000e-01,4.959106445312500000e-01
5.849226236343383789e+00,-1.726219415664672852e+00,-9.945513725280761719e+00,-3.711012601852416992e-01,-3.623962402343750000e+00,2.899169921875000000e-01,4.959106445312500000e-01
5.860630512237548828e+00,-1.726219415664672852e+00,-9.945513725280761719e+00,-3.711012601852416992e-01,-3.684997558593750000e+00,-5.569458007812500000e-01,1.167297363281250000e+00
5.876288175582885742e+00,-1.726219415664672852e+00,-9.852139472961425781e+00,-3.854664564132689875e-01,-3.692626953125000000e+00,-5.569458007812500000e-01,1.167297363281250000e+00
5.887289762496948242e+00,-1.771709203720092773e+00,-9.852139472961425781e+00,-4.141968786716461182e-01,-3.692626953125000000e+00,-2.365112304687500000e-01,1.098632812500000000e+00
5.901852130889892578e+00,-1.788468599319458008e+00,-9.789890289306640625e+00,-4.141968786716461182e-01,-3.784179687500000000e+00,-2.365112304687500000e-01,7.629394531250000000e-02
5.915365457534790039e+00,-1.795651197433471680e+00,-9.909600257873535156e+00,-3.471592366695404053e-01,-3.547668457031250000e+00,6.713867187500000000e-01,-9.918212890625000000e-02
5.930033445358276367e+00,-1.795651197433471680e+00,-9.876081466674804688e+00,-3.471592366695404053e-01,-3.868103027343750000e+00,9.613037109375000000e-01,-9.918212890625000000e-02
5.943947076797485352e+00,-1.795651197433471680e+00,-9.876081466674804688e+00,-3.878606557846068781e-01,-3.547668457031250000e+00,6.713867187500000000e-01,3.356933593750000000e-01
5.956949472427368164e+00,-1.733402013778686301e+00,-9.876081466674804688e+00,-4.932055473327636164e-01,-3.517150878906250000e+00,2.288818359375000000e-01,7.400512695312500000e-01
5.968751430511474609e+00,-1.733402013778686301e+00,-9.844957351684570312e+00,-4.764461219310759943e-01,-3.517150878906250000e+00,2.288818359375000000e-01,8.926391601562500000e-01
5.986099481582641602e+00,-1.759738206863403098e+00,-9.813832283020019531e+00,-4.764461219310759943e-01,-3.517150878906250000e+00,-1.907348632812500000e-01,8.926391601562500000e-01
