# elapsed time, f3_acc_x, f3_acc_y, f3_acc_z, f3_gyro_x, f3_gyro_y, f3_gyro_z
2.096271753311157227e+00,-3.220201253890991211e+00,-2.609679698944091797e-01,-1.001255130767822443e+01,-3.593444824218750000e+00,4.577636718750000000e-02,7.247924804687500000e-01
2.107994318008422852e+00,-3.220201253890991211e+00,-2.705447971820830744e-01,-1.003888797760009766e+01,-3.608703613281250000e+00,4.577636718750000000e-02,7.400512695312500000e-01
2.123309850692749023e+00,-3.205836057662963867e+00,-3.184288144111632746e-01,-1.003888797760009766e+01,-3.593444824218750000e+00,-3.051757812500000000e-02,7.400512695312500000e-01
2.137955665588378906e+00,-3.224989652633666992e+00,-2.920925915241240900e-01,-1.009874248504638850e+01,-3.608703613281250000e+00,-3.051757812500000000e-02,7.400512695312500000e-01
2.148622751235961914e+00,-3.224989652633666992e+00,-2.920925915241240900e-01,-1.009874248504638850e+01,-3.494262695312500000e+00,6.103515625000000000e-02,7.400512695312500000e-01
2.165475606918334961e+00,-3.224989652633666992e+00,-2.920925915241240900e-01,-1.004367637634277166e+01,-3.753662109375000000e+00,6.103515625000000000e-02,7.324218750000000000e-01
2.175884723663330078e+00,-3.174711465835571733e+00,-2.896983921527861994e-01,-9.986215591430664062e+00,-3.753662109375000000e+00,6.103515625000000000e-02,7.324218750000000000e-01
2.192280054092407227e+00,-3.174711465835571733e+00,-2.944867908954619806e-01,-9.986215591430664062e+00,-3.753662109375000000e+00,-9.918212890625000000e-02,7.324218750000000000e-01
2.203573942184448242e+00,-3.157952070236206055e+00,-2.944867908954619806e-01,-1.004607009887695135e+01,-3.791809082031250000e+00,3.051757812500000000e-02,5.187988281250000000e-01
2.218402147293090820e+00,-3.157952070236206055e+00,-2.944867908954619806e-01,-1.004607009887695135e+01,-3.913879394531250000e+00,-1.220703125000000000e-01,3.662109375000000000e-01
2.234490633010864258e+00,-3.167528867721557617e+00,-2.777273952960968018e-01,-1.005564689636230469e+01,-3.913879394531250000e+00,-1.220703125000000000e-01,3.662109375000000000e-01
2.245060443878173828e+00,-3.215412855148315430e+00,-2.681505978107451837e-01,-1.002931118011474609e+01,-3.715515136718750000e+00,-1.220703125000000000e-01,4.653930664062500000e-01
2.261306047439575195e+00,-3.215412855148315430e+00,-2.681505978107451837e-01,-1.001015758514404475e+01,-3.715515136718750000e+00,-2.593994140625000000e-01,5.950927734375000000e-01
2.272212743759155273e+00,-3.215412855148315430e+00,-2.849099934101104736e-01,-1.001015758514404475e+01,-3.784179687500000000e+00,-1.907348632812500000e-01,5.187988281250000000e-01
2.286926507949829102e+00,-3.256114244461060014e+00,-2.849099934101104736e-01,-1.005325317382812322e+01,-3.883361816406250000e+00,-1.907348632812500000e-01,5.187988281250000000e-01
2.300223112106323242e+00,-3.234566450119018555e+00,-2.705447971820830744e-01,-1.005325317382812322e+01,-3.883361816406250000e+00,-1.907348632812500000e-01,5.187988281250000000e-01
2.314302682876586914e+00,-3.236960649490356445e+00,-2.442085742950438898e-01,-1.005325317382812322e+01,-3.822326660156250000e+00,-2.441406250000000000e-01,2.670288085937500000e-01
2.329719543457031250e+00,-3.236960649490356445e+00,-2.442085742950438898e-01,-1.004607009887695135e+01,-3.692626953125000000e+00,-2.517700195312500000e-01,2.670288085937500000e-01
2.342344045639038086e+00,-3.251325845718383789e+00,-2.513911724090576172e-01,-9.998186111450195312e+00,-3.662109375000000000e+00,-2.517700195312500000e-01,2.670288085937500000e-01
2.355756044387817383e+00,-3.251325845718383789e+00,-2.561795711517333984e-01,-9.998186111450195312e+00,-3.662109375000000000e+00,-2.517700195312500000e-01,9.918212890625000000e-02
2.368631839752197266e+00,-3.270479440689086914e+00,-2.513911724090576172e-01,-1.001973438262939631e+01,-3.784179687500000000e+00,-1.983642578125000000e-01,1.983642578125000000e-01
2.385920524597167969e+00,-3.248931646347045898e+00,-2.561795711517333984e-01,-1.001973438262939631e+01,-3.906250000000000000e+00,-1.983642578125000000e-01,1.983642578125000000e-01
2.400002717971801758e+00,-3.265691041946411133e+00,-2.442085742950438898e-01,-1.001973438262939631e+01,-3.784179687500000000e+00,-3.051757812500000000e-01,1.983642578125000000e-01
2.410377979278564453e+00,-3.253720045089721680e+00,-2.609679698944091797e-01,-9.976638793945312500e+00,-3.776550292968750000e+00,-3.585815429687500000e-01,6.103515625000000000e-01
2.428083181381225586e+00,-3.253720045089721680e+00,-2.609679698944091797e-01,-9.976638793945312500e+00,-3.776550292968750000e+00,-3.051757812500000000e-01,4.653930664062500000e-01
2.439229726791381836e+00,-3.253720045089721680e+00,-2.609679698944091797e-01,-9.993397712707519531e+00,-3.692626953125000000e+00,-1.144409179687500000e-01,5.035400390625000000e-01
2.452157020568847656e+00,-3.215412855148315430e+00,-2.920925915241240900e-01,-1.003409957885742188e+01,-3.692626953125000000e+00,-1.144409179687500000e-01,5.035400390625000000e-01
2.469753026962280273e+00,-3.205836057662963867e+00,-2.681505978107451837e-01,-1.002212810516357422e+01,-3.692626953125000000e+00,1.068115234375000000e-01,5.035400390625000000e-01
2.480261564254760742e+00,-3.205836057662963867e+00,-2.681505978107451837e-01,-1.002212810516357422e+01,-3.631591796875000000e+00,1.296997070312500000e-01,6.179809570312500000e-01
2.495085477828979492e+00,-3.220201253890991211e+00,-2.681505978107451837e-01,-1.002212810516357422e+01,-3.623962402343750000e+00,1.296997070312500000e-01,6.179809570312500000e-01
2.508358001708984375e+00,-3.236960649490356445e+00,-2.920925915241240900e-01,-1.006282997131347656e+01,-3.623962402343750000e+00,1.907348632812500000e-01,7.400512695312500000e-01
2.520910501480102539e+00,-3.251325845718383789e+00,-2.920925915241240900e-01,-1.006282997131347656e+01,-3.623962402343750000e+00,7.629394531250000000e-03,8.773803710937500000e-01
2.534393787384033203e+00,-3.251325845718383789e+00,-2.920925915241240900e-01,-1.002691650390625000e+01,-3.425598144531250000e+00,1.068115234375000000e-01,7.400512695312500000e-01
2.551187276840209961e+00,-3.234566450119018555e+00,-2.418143749237059992e-01,-9.964667320251464844e+00,-3.425598144531250000e+00,1.068115234375000000e-01,6.332397460937500000e-01
2.563848257064819336e+00,-3.234566450119018555e+00,-2.394201606512068869e-01,-1.002691650390625000e+01,-3.555297851562500000e+00,1.068115234375000000e-01,6.332397460937500000e-01
2.575758695602416992e+00,-3.234566450119018555e+00,-2.394201606512068869e-01,-1.007958889007568359e+01,-3.593444824218750000e+00,1.068115234375000000e-01,6.256103515625000000e-01
2.593252658843994141e+00,-3.246537446975708008e+00,-2.394201606512068869e-01,-1.007958889007568359e+01,-3.746032714843750000e+00,3.051757812500000000e-02,6.256103515625000000e-01
2.604036808013916016e+00,-3.193865060806274414e+00,-3.064578175544738770e-01,-1.008916568756103516e+01,-3.746032714843750000e+00,3.051757812500000000e-02,6.256103515625000000e-01
2.617626190185546875e+00,-3.177105665206909180e+00,-2.825157940387725830e-01,-1.003170490264892578e+01,-3.692626953125000000e+00,3.051757812500000000e-02,5.416870117187500000e-01
2.631992101669311523e+00,-3.177105665206909180e+00,-3.160346150398253839e-01,-1.002452278137207031e+01,-3.646850585937500000e+00,-2.288818359375000000e-02,6.713867187500000000e-01
2.644714117050170898e+00,-3.208230257034301758e+00,-2.825157940387725830e-01,-1.002452278137207031e+01,-3.692626953125000000e+00,-3.814697265625000000e-02,6.713867187500000000e-01
2.659854888916015625e+00,-3.229778051376342773e+00,-2.633621692657470148e-01,-1.005325317382812322e+01,-3.669738769531250000e+00,-1.525878906250000000e-01,6.713867187500000000e-01
2.671912670135498047e+00,-3.229778051376342773e+00,-2.633621692657470148e-01,-1.009874248504638850e+01,-3.700256347656250000e+00,-1.525878906250000000e-01,7.171630859375000000e-01
2.687245845794677734e+00,-3.229778051376342773e+00,-2.681505978107451837e-01,-1.009874248504638850e+01,-3.700256347656250000e+00,-2.670288085937500000e-01,1.525878906250000000e-01
2.699000358581542969e+00,-3.260902643203735796e+00,-2.681505978107451837e-01,-1.009874248504638850e+01,-3.700256347656250000e+00,-3.128051757812500000e-01,2.670288085937500000e-01
2.714690923690795898e+00,-3.217807054519653320e+00,-2.705447971820830744e-01,-1.009156036376953125e+01,-3.700256347656250000e+00,-3.509521484375000000e-01,2.670288085937500000e-01
2.725641250610351562e+00,-3.256114244461060014e+00,-2.849099934101104736e-01,-1.007240676879882812e+01,-3.776550292968750000e+00,-3.509521484375000000e-01,2.670288085937500000e-01
2.857242584228515625e+00,-3.217807054519653320e+00,-3.016694188117980957e-01,-1.009156036376953125e+01,-3.776550292968750000e+00,-3.509521484375000000e-01,1.678466796875000000e-01
2.868610382080078125e+00,-3.256114244461060014e+00,-1.426944136619568093e+00,-1.246660804748535156e+01,1.966400146484375000e+02,3.814697265625000000e-02,-1.479339599609375000e+01
2.880776882171630859e+00,-5.166687011718750000e+00,-1.426944136619568093e+00,-1.246660804748535156e+01,2.168273925781250000e+02,-9.941101074218750000e+00,-3.253936767578125000e+01
2.893308162689208984e+00,-5.166687011718750000e+00,-8.188169598579406738e-01,-3.344699621200561079e+00,2.168273925781250000e+02,3.814697265625000000e-02,-3.594207763671875000e+01
2.908123254776000977e+00,-1.019929885864257812e+00,-8.188169598579406738e-01,-3.344699621200561079e+00,1.408081054687500000e+02,-1.953125000000000000e+00,-3.253936767578125000e+01
2.920485258102416992e+00,-1.019929885864257812e+00,-1.084573388099670410e+00,-5.901707172393798828e+00,1.075439453125000000e+02,-1.152038574218750000e+00,-6.294250488281250000e+00
2.935760736465454102e+00,-4.407725334167480469e+00,-3.509899616241455078e+00,-8.729259490966796875e+00,1.022644042968750000e+02,-1.953125000000000000e+00,-5.432128906250000000e+00
2.951064348220825195e+00,-4.407725334167480469e+00,-4.809951305389404297e+00,-1.367807388305664062e+01,1.022644042968750000e+02,-1.152038574218750000e+00,-5.432128906250000000e+00
2.963808774948120117e+00,-5.367800235748291016e+00,-4.865017890930175781e+00,-1.367807388305664062e+01,1.490402221679687500e+02,-2.723693847656250000e+00,-1.938629150390625000e+01
2.977985858917236328e+00,-3.445256233215332031e+00,-4.865017890930175781e+00,-1.365173816680908203e+01,2.012176513671875000e+02,-3.204345703125000000e+00,-2.118682861328125000e+01
2.990035533905029297e+00,-3.215412855148315430e+00,-4.472368717193604404e+00,-1.158554172515869141e+01,2.221374511718750000e+02,-8.148193359375000000e+00,-2.451324462890625000e+01
3.005879878997802734e+00,-3.205836057662963867e+00,-4.292803764343261719e+00,-1.004367637634277166e+01,2.292938232421875000e+02,-3.204345703125000000e+00,-3.215026855468750000e+01
3.018726587295532227e+00,-1.910572886466979980e+00,-3.727771997451782227e+00,-7.685387134552001953e+00,2.292938232421875000e+02,-8.338928222656250000e+00,-2.451324462890625000e+01
3.031333923339843750e+00,-1.630451321601867676e+00,-3.727771997451782227e+00,-6.823474884033203125e+00,2.081756591796875000e+02,-1.197052001953125000e+01,-1.167297363281250000e+01
3.047271728515625000e+00,-1.630451321601867676e+00,-4.771644115447998047e+00,-6.536170482635498047e+00,1.972198486328125000e+02,-2.363586425781250000e+01,8.079528808593750000e+00
3.059076786041259766e+00,-4.290409564971923828e+00,-5.693411350250244141e+00,-6.390124320983886719e+00,1.890869140625000000e+02,-2.363586425781250000e+01,8.079528808593750000e+00
3.073709964752197266e+00,-4.290409564971923828e+00,-5.961562156677246094e+00,-6.390124320983886719e+00,1.890869140625000000e+02,-3.974914550781250000e+00,9.559631347656250000e+00
3.090844631195068359e+00,-4.290409564971923828e+00,-7.110778808593750000e+00,-6.339846134185791016e+00,1.818313598632812500e+02,-1.098632812500000000e+00,-3.987121582031250000e+01
3.102108240127563477e+00,2.394201699644299842e-03,-8.166622161865234375e+00,-9.916783332824708808e+00,1.976852416992187500e+02,4.615783691406250000e+00,-3.868103027343750000e+01
3.115528106689453125e+00,-3.615244388580321822e+00,-7.110778808593750000e+00,-5.726930141448974609e+00,2.020111083984375000e+02,4.615783691406250000e+00,-3.868103027343750000e+01
3.130311250686645508e+00,-3.615244388580321822e+00,-6.581660270690917969e+00,-5.726930141448974609e+00,2.020111083984375000e+02,2.059936523437500000e-01,-3.752136230468750000e+01
3.142373800277709961e+00,-3.670311212539672852e+00,-6.198587894439697266e+00,-5.726930141448974609e+00,1.951828002929687500e+02,2.059936523437500000e-01,-3.752136230468750000e+01
3.156761407852172852e+00,-3.670311212539672852e+00,-5.643133163452148438e+00,-3.622427225112915039e+00,1.937255859375000000e+02,4.089355468750000000e+00,-3.752136230468750000e+01
3.171242475509643555e+00,-3.670311212539672852e+00,-5.643133163452148438e+00,-6.794744491577148438e+00,1.254501342773437642e+02,7.337188720703125000e+01,-7.148742675781250000e+00
3.184496402740478516e+00,8.140285611152648926e-01,-5.102043628692626953e+00,4.065354347229003906e+00,-7.858276367187500000e+00,7.337188720703125000e+01,-4.676818847656250000e+00
3.197426080703735352e+00,-1.077390760183333934e-01,-5.137956619262695312e+00,2.561795711517333984e+00,4.531097412109375000e+01,4.602050781250000000e+01,-4.676818847656250000e+00
3.214055538177490234e+00,-1.077390760183333934e-01,-5.137956619262695312e+00,2.561795711517333984e+00,3.500366210937500000e+01,4.197692871093750000e+01,-1.072692871093750000e+01
3.226964950561523438e+00,-2.339134931564331055e+00,-9.076418876647949219e+00,-2.839523077011108398e+00,3.500366210937500000e+01,4.197692871093750000e+01,-1.795196533203125000e+01
3.237976789474487305e+00,-2.691082715988159180e+00,-9.081207275390623224e+00,-3.885789394378662109e+00,3.238677978515625000e+01,3.286743164062500000e+01,-1.795196533203125000e+01
3.256255149841308594e+00,-2.339134931564331055e+00,-9.076418876647949219e+00,-4.560954093933105469e+00,3.238677978515625000e+01,2.096557617187500000e+01,-1.239776611328125000e+01
3.266916990280151367e+00,-2.576160907745361328e+00,-9.313444137573242188e+00,-4.697423458099365234e+00,3.363800048828125000e+01,2.068328857421875000e+01,-1.142120361328125000e+01
3.279970169067382812e+00,-1.793256998062133789e+00,-8.628703117370605469e+00,-4.560954093933105469e+00,3.795623779296875000e+01,1.184082031250000000e+01,-4.730224609375000000e-01
3.293211936950683594e+00,-2.576160907745361328e+00,-9.397241592407228339e+00,-4.611232280731201172e+00,3.437805175781250000e+01,1.184082031250000000e+01,2.586364746093750000e+00
3.308274745941162109e+00,-2.463633537292480469e+00,-9.392453193664550781e+00,-4.462791919708251953e+00,3.437805175781250000e+01,9.933471679687500000e+00,2.586364746093750000e+00
3.320162534713745117e+00,-2.463633537292480469e+00,-9.397241592407228339e+00,-4.462791919708251953e+00,3.437805175781250000e+01,1.141357421875000000e+01,-1.564025878906250000e+00
3.334768533706665039e+00,-2.281674146652221680e+00,-9.397241592407228339e+00,-3.402160644531250000e+00,3.643798828125000000e+01,1.141357421875000000e+01,-3.051757812500000000e+00
3.350759744644165039e+00,-2.281674146652221680e+00,-9.425971984863279474e+00,-3.402160644531250000e+00,3.643798828125000000e+01,1.141357421875000000e+01,-3.250122070312500000e+00
3.361424684524536133e+00,-2.624045133590698242e+00,-9.612719535827636719e+00,-3.315969228744506836e+00,3.176116943359375000e+01,7.583618164062500000e+00,-3.250122070312500000e+00
3.377058267593383789e+00,-2.624045133590698242e+00,-9.674968719482421875e+00,-3.306392431259155718e+00,2.222442626953125000e+01,1.739501953125000000e+00,9.231567382812500000e-01
3.388548851013183594e+00,-2.499546527862548828e+00,-9.770736694335937500e+00,-3.263296842575072798e+00,6.011962890625000000e+00,1.739501953125000000e+00,9.231567382812500000e-01
3.404464960098266602e+00,-2.487575531005859819e+00,-9.770736694335937500e+00,-3.263296842575072798e+00,1.525878906250000000e-02,1.739501953125000000e+00,9.231567382812500000e-01
3.417987823486328125e+00,-2.487575531005859819e+00,-9.306262016296388495e+00,-3.416525840759277344e+00,1.525878906250000000e-02,-6.103515625000000000e-02,8.544921875000000000e-01
3.431752443313598633e+00,-2.260126352310180664e+00,-9.306262016296388495e+00,-3.416525840759277344e+00,1.525878906250000000e-02,-6.103515625000000000e-01,1.106262207031250000e+00
3.445292949676513672e+00,-2.260126352310180664e+00,-9.265560150146484375e+00,-3.416525840759277344e+00,-1.327514648437500000e+00,-6.103515625000000000e-02,8.544921875000000000e-01
3.457561969757080078e+00,-2.384624958038330078e+00,-9.323020935058593750e+00,-3.557783603668212891e+00,-1.770019531250000000e+00,2.288818359375000000e-01,3.280639648437500000e-01
3.472683668136596680e+00,-2.384624958038330078e+00,-9.337386131286619317e+00,-3.598484992980957031e+00,-2.342224121093750000e+00,5.493164062500000000e-01,2.746582031250000000e-01
3.484108209609985352e+00,-2.384624958038330078e+00,-9.414000511169433594e+00,-3.627215623855590820e+00,-2.342224121093750000e+00,5.493164062500000000e-01,3.280639648437500000e-01
3.499011516571044922e+00,-2.315192937850952148e+00,-9.337386131286619317e+00,-3.627215623855590820e+00,-2.586364746093750000e+00,-6.027221679687500000e-01,1.434326171875000000e+00
3.514046192169189453e+00,-2.444479942321777344e+00,-9.270348548889160156e+00,-3.495534420013428178e+00,-2.586364746093750000e+00,-6.027221679687500000e-01,1.434326171875000000e+00
3.526975154876708984e+00,-2.315192937850952148e+00,-9.258378028869627130e+00,-3.481169223785400391e+00,-3.349304199218750000e+00,-2.517700195312500000e-01,4.043579101562500000e-01
3.542452573776245117e+00,-2.410961151123046875e+00,-9.270348548889160156e+00,-3.481169223785400391e+00,-3.349304199218750000e+00,-2.517700195312500000e-01,4.043579101562500000e-01
3.554282188415527344e+00,-2.272097349166870117e+00,-9.337386131286619317e+00,-3.478775024414062500e+00,-3.273010253906250000e+00,-7.629394531250000000e-02,5.187988281250000000e-01
3.568929433822631836e+00,-2.394201755523681641e+00,-9.337386131286619317e+00,-3.598484992980957031e+00,-3.234863281250000000e+00,-2.670288085937500000e-01,1.289367675781250000e+00
3.581608772277832031e+00,-2.394201755523681641e+00,-9.294290542602540839e+00,-3.598484992980957031e+00,-3.234863281250000000e+00,-7.629394531250000000e-02,1.289367675781250000e+00
3.596248149871826172e+00,-2.394201755523681641e+00,-9.294290542602540839e+00,-3.600879192352294922e+00,-3.372192382812500000e+00,8.392333984375000000e-02,5.111694335937500000e-01
3.607231855392456055e+00,-2.391807556152344194e+00,-9.260771751403808594e+00,-3.608061790466308594e+00,-3.372192382812500000e+00,3.585815429687500000e-01,3.967285156250000000e-01
3.622539997100830078e+00,-2.365471124649047852e+00,-9.330204010009765625e+00,-3.608061790466308594e+00,-3.479003906250000000e+00,3.585815429687500000e-01,5.111694335937500000e-01
3.638186454772949219e+00,-2.365471124649047852e+00,-9.330204010009765625e+00,-3.473986625671386719e+00,-3.234863281250000000e+00,-7.629394531250000000e-02,3.967285156250000000e-01
3.649344444274902344e+00,-2.365471124649047852e+00,-9.382876396179199219e+00,-3.473986625671386719e+00,-3.479003906250000000e+00,-1.449584960937500000e-01,8.697509765625000000e-01
3.664305210113525391e+00,-2.322375535964965820e+00,-9.382876396179199219e+00,-3.473986625671386719e+00,-3.395080566406250000e+00,-1.449584960937500000e-01,8.697509765625000000e-01
3.679406166076660156e+00,-2.229001760482788086e+00,-9.315838813781738281e+00,-3.452438831329345703e+00,-3.707885742187500000e+00,-4.882812500000000000e-01,1.159667968750000000e+00
3.690806150436401367e+00,-2.229001760482788086e+00,-9.315838813781738281e+00,-3.452438831329345703e+00,-3.395080566406250000e+00,-4.882812500000000000e-01,1.159667968750000000e+00
3.703181266784667969e+00,-2.329558134078979492e+00,-9.342174530029296875e+00,-3.452438831329345703e+00,-3.425598144531250000e+00,-2.212524414062500000e-01,9.231567382812500000e-01
3.720723152160644531e+00,-2.329558134078979492e+00,-9.346962928771972656e+00,-3.430891036987304688e+00,-3.425598144531250000e+00,1.525878906250000000e-01,2.822875976562500000e-01
3.731407165527343750e+00,-2.257732152938842773e+00,-9.346962928771972656e+00,-3.430891036987304688e+00,-3.456115722656250000e+00,1.525878906250000000e-01,2.822875976562500000e-01
3.745606660842895508e+00,-2.257732152938842773e+00,-9.346962928771972656e+00,-3.524264812469482422e+00,-3.456115722656250000e+00,-1.907348632812500000e-01,7.324218750000000000e-01
3.762821197509765625e+00,-2.300827741622924805e+00,-9.308655738830566406e+00,-3.524264812469482422e+00,-3.395080566406250000e+00,-1.907348632812500000e-01,1.136779785156250000e+00
3.773497581481933594e+00,-2.305616140365600586e+00,-9.344569206237791192e+00,-3.524264812469482422e+00,-3.395080566406250000e+00,-2.365112304687500000e-01,1.136779785156250000e+00
3.787886381149291992e+00,-2.305616140365600586e+00,-9.284713745117187500e+00,-3.538630008697509766e+00,-3.395080566406250000e+00,-4.577636718750000000e-02,6.713867187500000000e-01
3.801746606826782227e+00,-2.360682725906372070e+00,-9.342174530029296875e+00,-3.562572002410888672e+00,-3.341674804687500000e+00,3.356933593750000000e-01,2.975463867187500000e-01
3.815127134323120117e+00,-2.360682725906372070e+00,-9.342174530029296875e+00,-3.562572002410888672e+00,-3.318786621093750000e+00,3.509521484375000000e-01,2.975463867187500000e-01
3.829807043075561523e+00,-2.415749549865722656e+00,-9.385270118713380683e+00,-3.586513996124268022e+00,-3.318786621093750000e+00,3.356933593750000000e-01,9.918212890625000000e-02
3.843236684799194336e+00,-2.420537948608398438e+00,-9.385270118713380683e+00,-3.579331398010253906e+00,-3.723144531250000000e+00,4.425048828125000000e-01,5.111694335937500000e-01
3.856839656829833984e+00,-2.420537948608398438e+00,-9.387664794921876776e+00,-3.581725597381591797e+00,-3.723144531250000000e+00,-9.155273437500000000e-02,5.111694335937500000e-01
3.868866920471191406e+00,-2.355894327163696289e+00,-9.387664794921876776e+00,-3.579331398010253906e+00,-3.440856933593750000e+00,-3.662109375000000000e-01,8.697509765625000000e-01
3.885344505310058594e+00,-2.355894327163696289e+00,-9.387664794921876776e+00,-3.576937198638916016e+00,-3.440856933593750000e+00,-3.662109375000000000e-01,8.697509765625000000e-01
3.895641565322875977e+00,-2.355894327163696289e+00,-9.282320022583007812e+00,-3.488351821899414062e+00,-3.585815429687500000e+00,-3.585815429687500000e-01,8.087158203125000000e-01
3.910776853561401367e+00,-2.415749549865722656e+00,-9.282320022583007812e+00,-3.488351821899414062e+00,-3.746032714843750000e+00,2.136230468750000000e-01,3.204345703125000000e-01
3.922512531280517578e+00,-2.389413356781005859e+00,-9.414000511169433594e+00,-3.473986625671386719e+00,-3.746032714843750000e+00,2.136230468750000000e-01,3.204345703125000000e-01
3.938125610351562500e+00,-2.389413356781005859e+00,-9.414000511169433594e+00,-3.505111217498779741e+00,-3.700256347656250000e+00,-3.280639648437500000e-01,8.621215820312500000e-01
3.949898958206176758e+00,-2.351105928421020508e+00,-9.358934402465820312e+00,-3.505111217498779741e+00,-3.410339355468750000e+00,-3.280639648437500000e-01,8.621215820312500000e-01
3.965399026870727539e+00,-2.351105928421020508e+00,-9.325415611267089844e+00,-3.505111217498779741e+00,-3.410339355468750000e+00,-1.144409179687500000e-01,7.324218750000000000e-01
3.979644060134887695e+00,-2.401384353637695757e+00,-9.296685218811035156e+00,-3.517082214355468750e+00,-3.555297851562500000e+00,-7.629394531250000000e-02,7.324218750000000000e-01
3.991484165191650391e+00,-2.401384353637695757e+00,-9.296685218811035156e+00,-3.517082214355468750e+00,-3.555297851562500000e+00,-1.144409179687500000e-01,7.476806640625000000e-01
4.007227659225463867e+00,-2.358288526535034180e+00,-9.337386131286619317e+00,-3.517082214355468750e+00,-3.295898437500000000e+00,-1.907348632812500000e-01,7.858276367187500000e-01
4.019615650177001953e+00,-2.353500127792358398e+00,-9.373299598693847656e+00,-3.517082214355468750e+00,-3.295898437500000000e+00,-2.822875976562500000e-01,7.476806640625000000e-01
4.035126924514770508e+00,-2.346317529678344727e+00,-9.373299598693847656e+00,-3.591302394866943803e+00,-3.715515136718750000e+00,-2.822875976562500000e-01,7.858276367187500000e-01
4.046528577804565430e+00,-2.322375535964965820e+00,-9.373299598693847656e+00,-3.591302394866943803e+00,-3.715515136718750000e+00,-2.746582031250000000e-01,8.392333984375000000e-01
4.061280250549316406e+00,-2.322375535964965820e+00,-9.368511199951171875e+00,-3.581725597381591797e+00,-3.456115722656250000e+00,0.000000000000000000e+00,8.392333984375000000e-01
4.072268724441528320e+00,-2.372653961181640625e+00,-9.349357604980468750e+00,-3.507505416870117188e+00,-3.456115722656250000e+00,1.373291015625000000e-01,8.392333984375000000e-01
