# elapsed time, f1_acc_x, f1_acc_y, f1_acc_z, f1_gyro_x, f1_gyro_y, f1_gyro_z
7.213776111602783203e-01,-4.132391929626464844e+00,4.481945514678955078e+00,-8.367734909057617188e+00,-3.646850585937500000e+00,5.340576171875000000e-02,8.544921875000000000e-01
7.327213287353515625e-01,-4.132391929626464844e+00,4.501099109649658203e+00,-8.288725852966308594e+00,-3.646850585937500000e+00,2.517700195312500000e-01,4.272460937500000000e-01
7.481667995452880859e-01,-4.132391929626464844e+00,4.501099109649658203e+00,-8.288725852966308594e+00,-3.463745117187500000e+00,3.814697265625000000e-02,4.882812500000000000e-01
7.629742622375488281e-01,-4.055777549743652344e+00,4.501099109649658203e+00,-8.288725852966308594e+00,-3.463745117187500000e+00,3.814697265625000000e-02,4.882812500000000000e-01
7.749884128570556641e-01,-4.089296340942382812e+00,4.520252704620361328e+00,-8.214506149291992188e+00,-3.463745117187500000e+00,3.814697265625000000e-02,4.882812500000000000e-01
7.903225421905517578e-01,-4.089296340942382812e+00,4.520252704620361328e+00,-8.209717750549316406e+00,-3.463745117187500000e+00,-7.629394531250000000e-02,9.460449218750000000e-01
8.019974231719970703e-01,-4.089296340942382812e+00,4.520252704620361328e+00,-8.209717750549316406e+00,-3.906250000000000000e+00,-7.629394531250000000e-02,9.002685546875000000e-01
8.175334930419921875e-01,-4.122815132141113281e+00,4.522646903991699219e+00,-8.149862289428710938e+00,-3.906250000000000000e+00,-7.629394531250000000e-02,9.002685546875000000e-01
8.293831348419189453e-01,-4.122815132141113281e+00,4.515464305877685547e+00,-8.257601737976074219e+00,-3.906250000000000000e+00,-4.959106445312500000e-01,9.002685546875000000e-01
8.436985015869140625e-01,-4.122815132141113281e+00,4.539406299591064453e+00,-8.257601737976074219e+00,-3.990173339843750000e+00,1.983642578125000000e-01,9.918212890625000000e-02
8.561825752258300781e-01,-4.151545524597167969e+00,4.570530891418457031e+00,-8.257601737976074219e+00,-3.204345703125000000e+00,-1.525878906250000000e-01,9.918212890625000000e-02
8.706820011138916016e-01,-4.113238334655761719e+00,4.570530891418457031e+00,-8.264783859252929688e+00,-3.471374511718750000e+00,-1.525878906250000000e-01,9.918212890625000000e-02
8.862528800964355469e-01,-4.113238334655761719e+00,4.553771495819091797e+00,-8.197746276855468750e+00,-3.471374511718750000e+00,-1.525878906250000000e-01,-1.373291015625000000e-01
8.977925777435302734e-01,-4.113238334655761719e+00,4.520252704620361328e+00,-8.209717750549316406e+00,-3.471374511718750000e+00,-4.730224609375000000e-01,6.561279296875000000e-01
9.133834838867187500e-01,-4.110844135284423828e+00,4.520252704620361328e+00,-8.209717750549316406e+00,-3.410339355468750000e+00,-4.730224609375000000e-01,6.561279296875000000e-01
9.254512786865234375e-01,-4.201823711395263672e+00,4.520252704620361328e+00,-8.209717750549316406e+00,-3.410339355468750000e+00,-4.730224609375000000e-01,6.561279296875000000e-01
9.397835731506347656e-01,-4.201823711395263672e+00,4.498704910278320312e+00,-8.226476669311523438e+00,-3.410339355468750000e+00,-7.095336914062500000e-01,8.544921875000000000e-01
9.523429870605468750e-01,-4.201823711395263672e+00,4.551377296447753906e+00,-8.226476669311523438e+00,-3.807067871093750000e+00,3.051757812500000000e-01,4.425048828125000000e-01
9.672880172729492188e-01,-4.218583106994628906e+00,4.551377296447753906e+00,-8.228871345520019531e+00,-3.425598144531250000e+00,2.517700195312500000e-01,4.425048828125000000e-01
9.821519851684570312e-01,-4.144362926483154297e+00,4.551377296447753906e+00,-8.336609840393066406e+00,-3.425598144531250000e+00,2.517700195312500000e-01,4.425048828125000000e-01
9.938120841979980469e-01,-4.144362926483154297e+00,4.539406299591064453e+00,-8.281543731689453125e+00,-3.425598144531250000e+00,2.517700195312500000e-01,1.296997070312500000e-01
1.009248256683349609e+00,-4.144362926483154297e+00,4.539406299591064453e+00,-8.281543731689453125e+00,-3.440856933593750000e+00,2.212524414062500000e-01,5.111694335937500000e-01
1.021025419235229492e+00,-4.096478939056396484e+00,4.539406299591064453e+00,-8.281543731689453125e+00,-3.440856933593750000e+00,2.212524414062500000e-01,5.111694335937500000e-01
1.036046981811523438e+00,-4.175487518310546875e+00,4.539406299591064453e+00,-8.243236541748046875e+00,-3.440856933593750000e+00,2.212524414062500000e-01,5.111694335937500000e-01
1.050940275192260742e+00,-4.175487518310546875e+00,4.532223701477050781e+00,-8.152256965637207031e+00,-3.265380859375000000e+00,-1.068115234375000000e-01,9.536743164062500000e-01
1.062887430191040039e+00,-4.175487518310546875e+00,4.532223701477050781e+00,-8.152256965637207031e+00,-3.776550292968750000e+00,-1.068115234375000000e-01,6.637573242187500000e-01
1.078087329864501953e+00,-4.161122322082520419e+00,4.532223701477050781e+00,-8.180987358093261719e+00,-3.776550292968750000e+00,-1.068115234375000000e-01,6.637573242187500000e-01
1.089526414871215820e+00,-4.149151325225830078e+00,4.469974517822265625e+00,-8.236053466796875000e+00,-3.776550292968750000e+00,-4.806518554687500000e-01,6.637573242187500000e-01
1.105993747711181641e+00,-4.149151325225830078e+00,4.501099109649658203e+00,-8.236053466796875000e+00,-3.967285156250000000e+00,8.392333984375000000e-02,3.433227539062500000e-01
1.120567321777343750e+00,-4.149151325225830078e+00,4.501099109649658203e+00,-8.236053466796875000e+00,-3.669738769531250000e+00,8.392333984375000000e-02,3.433227539062500000e-01
1.134487390518188477e+00,-4.129997730255126953e+00,4.501099109649658203e+00,-8.360551834106445312e+00,-3.669738769531250000e+00,8.392333984375000000e-02,3.433227539062500000e-01
1.146573066711425781e+00,-4.129997730255126953e+00,4.529829502105712891e+00,-8.147468566894531250e+00,-3.669738769531250000e+00,5.722045898437500000e-01,-7.629394531250000000e-02
1.159687995910644531e+00,-4.129997730255126953e+00,4.498704910278320312e+00,-8.147468566894531250e+00,-3.517150878906250000e+00,6.866455078125000000e-02,3.051757812500000000e-01
1.176465988159179688e+00,-4.043806552886962891e+00,4.498704910278320312e+00,-8.147468566894531250e+00,-3.509521484375000000e+00,6.866455078125000000e-02,3.051757812500000000e-01
1.187599897384643555e+00,-4.146757125854492188e+00,4.498704910278320312e+00,-8.149862289428710938e+00,-3.509521484375000000e+00,6.866455078125000000e-02,3.051757812500000000e-01
1.201004505157470703e+00,-4.146757125854492188e+00,4.493916511535644531e+00,-8.271966934204101562e+00,-3.509521484375000000e+00,-7.400512695312500000e-01,1.350402832031250000e+00
1.218430995941162109e+00,-4.146757125854492188e+00,4.493916511535644531e+00,-8.271966934204101562e+00,-3.875732421875000000e+00,-7.629394531250000000e-03,2.136230468750000000e-01
1.229357719421386719e+00,-4.206612110137940341e+00,4.493916511535644531e+00,-8.271966934204101562e+00,-3.318786621093750000e+00,-7.629394531250000000e-03,2.136230468750000000e-01
1.242635488510131836e+00,-4.161122322082520419e+00,4.489128112792968750e+00,-8.252813339233398438e+00,-3.318786621093750000e+00,-7.629394531250000000e-03,2.136230468750000000e-01
1.257345914840698242e+00,-4.161122322082520419e+00,4.529829502105712891e+00,-8.252813339233398438e+00,-3.318786621093750000e+00,-6.866455078125000000e-02,-1.525878906250000000e-02
1.270632743835449219e+00,-4.161122322082520419e+00,4.529829502105712891e+00,-8.252813339233398438e+00,-3.257751464843750000e+00,-6.866455078125000000e-02,4.577636718750000000e-02
1.281646013259887695e+00,-4.041412353515625000e+00,4.529829502105712891e+00,-8.358158111572265625e+00,-3.257751464843750000e+00,-6.866455078125000000e-02,4.577636718750000000e-02
1.299535512924194336e+00,-4.153939723968505859e+00,4.560954093933105469e+00,-8.209717750549316406e+00,-3.257751464843750000e+00,4.577636718750000000e-02,4.577636718750000000e-02
1.314233779907226562e+00,-4.041412353515625000e+00,4.465186119079589844e+00,-8.209717750549316406e+00,-3.005981445312500000e+00,-9.155273437500000000e-01,-3.509521484375000000e-01
1.438751935958862305e+00,-4.153939723968505859e+00,3.967192173004150391e+00,-7.161056995391845703e+00,1.478729248046875000e+02,-1.838684082031250000e+00,-7.942199707031250000e+00
1.449944496154785156e+00,-3.813963174819945401e+00,3.890577793121337891e+00,-7.161056995391845703e+00,1.675872802734375000e+02,-4.875183105468750000e+00,-1.351928710937500000e+01
1.465425491333007812e+00,-4.474762916564941406e+00,2.231395959854125977e+00,-1.035492229461669922e+01,1.675872802734375000e+02,-8.888244628906250000e+00,-1.086425781250000000e+01
1.476876735687255859e+00,-4.474762916564941406e+00,7.302315235137939453e-01,-1.114500904083251953e+01,1.747512817382812500e+02,-8.888244628906250000e+00,-1.351928710937500000e+01
1.491961956024169922e+00,-4.474762916564941406e+00,4.692635238170623779e-01,-1.179383754730224609e+01,1.859283447265625000e+02,-8.888244628906250000e+00,-2.028656005859375000e+01
1.506707668304443359e+00,-6.215347290039063388e+00,4.405331015586853027e-01,-1.179383754730224609e+01,2.073135375976562500e+02,-1.264953613281250000e+01,-2.851104736328125000e+01
1.519486665725708008e+00,-4.460397720336914062e+00,4.405331015586853027e-01,-1.068532180786132812e+01,2.162704467773437216e+02,-1.388549804687500000e+01,-2.851104736328125000e+01
1.534522533416748047e+00,-5.348646640777587891e+00,4.405331015586853027e-01,-8.741230010986328125e+00,2.162704467773437216e+02,-1.264953613281250000e+01,-2.875518798828125000e+01
1.546215534210205078e+00,-4.460397720336914062e+00,1.891419291496276023e-01,-8.640673637390136719e+00,2.082672119140625000e+02,-1.089477539062500000e+01,-3.353881835937500000e+01
1.561187982559204102e+00,-4.132391929626464844e+00,-3.208230137825012207e-01,-8.640673637390136719e+00,1.928482055664062500e+02,-3.257751464843750000e+00,-3.353881835937500000e+01
1.576080799102783203e+00,-4.132391929626464844e+00,-9.959878921508787952e-01,-8.643068313598632812e+00,1.921005249023437216e+02,-3.257751464843750000e+00,-2.833557128906250000e+01
1.588431119918823242e+00,-4.206612110137940341e+00,-1.939303398132323997e+00,-8.643068313598632812e+00,1.903305053710937216e+02,-3.257751464843750000e+00,-2.833557128906250000e+01
1.603672981262207031e+00,-4.316745758056640625e+00,-2.219424962997436523e+00,-8.643068313598632812e+00,1.900024414062500000e+02,-6.042480468750000000e+00,-2.359008789062500000e+01
1.615137338638305664e+00,-4.316745758056640625e+00,-2.420537948608398438e+00,-8.513781547546386719e+00,1.900024414062500000e+02,-2.517700195312500000e-01,-2.980804443359375000e+01
1.629607200622558594e+00,-4.577713489532470703e+00,-3.950432777404785156e+00,-9.821015357971191406e+00,1.995544433593750000e+02,-5.729675292968750000e+00,-2.053833007812500000e+01
1.641806125640869141e+00,-4.577713489532470703e+00,-4.201823711395263672e+00,-1.024957752227783203e+01,2.139434814453125000e+02,-2.517700195312500000e-01,-2.980804443359375000e+01
1.657078981399536133e+00,-4.577713489532470703e+00,-5.779603004455566406e+00,-1.024957752227783203e+01,2.273559570312500000e+02,-5.729675292968750000e+00,-2.085113525390625000e+01
1.672511100769042969e+00,-1.759738206863403098e+00,-5.779603004455566406e+00,-8.805873870849609375e+00,2.386322021484375000e+02,-2.358245849609375000e+01,-2.085113525390625000e+01
1.683911323547363281e+00,-4.350264549255371094e+00,-5.655104160308837891e+00,-7.893682956695556641e+00,2.449111938476562500e+02,-2.358245849609375000e+01,-2.085113525390625000e+01
1.698874473571777344e+00,-4.220977306365966797e+00,-3.916913986206055132e+00,-7.783549785614013672e+00,2.449111938476562500e+02,-1.000976562500000000e+01,-2.315521240234375000e+01
1.714079380035400391e+00,-4.350264549255371094e+00,-5.655104160308837891e+00,-7.668627738952636719e+00,2.455444335937500000e+02,-4.791259765625000000e+00,-3.791809082031250000e+01
1.725998878479003906e+00,-4.240131378173828125e+00,-5.870582580566406250e+00,-7.307103633880615234e+00,2.484741210937500000e+02,-1.000976562500000000e+01,-2.841186523437500000e+01
1.740970611572265625e+00,-4.240131378173828125e+00,-5.870582580566406250e+00,-6.500257492065429688e+00,2.499923706054687500e+02,-1.556396484375000000e+01,-2.972412109375000000e+01
1.753781795501708984e+00,-1.343147158622741699e+00,-5.870582580566406250e+00,-7.307103633880615234e+00,2.499923706054687500e+02,-1.556396484375000000e+01,-2.841186523437500000e+01
1.767930269241333008e+00,-1.343147158622741699e+00,-1.076672458648681641e+01,-8.609549522399902344e+00,2.205047607421875000e+02,-4.898071289062500000e+00,-9.552001953125000000e+00
1.782589435577392578e+00,-4.656722068786621094e+00,-1.076672458648681641e+01,-8.609549522399902344e+00,1.068649291992187642e+02,3.547668457031250000e+00,-9.552001953125000000e+00
1.795200109481811523e+00,-4.656722068786621094e+00,-1.011071395874023438e+01,-6.268020153045654297e+00,8.219909667968750000e+01,-4.898071289062500000e+00,-1.454162597656250000e+01
1.810098409652709961e+00,-4.079719543457031250e+00,-4.941632270812988281e+00,-3.576937198638916016e+00,1.019821166992187642e+02,-7.698059082031250000e+00,-1.454162597656250000e+01
1.821636915206909180e+00,-3.157952070236206055e+00,-6.605602264404296875e+00,-2.061407566070556641e+00,8.219909667968750000e+01,-7.698059082031250000e+00,6.256103515625000000e-01
1.839767456054687500e+00,-3.157952070236206055e+00,-6.605602264404296875e+00,-2.061407566070556641e+00,1.602172851562500000e+01,-7.400512695312500000e+00,7.240295410156250000e+00
1.850270271301269531e+00,-4.613626480102539062e+00,-8.068459510803222656e+00,-4.872200489044189453e+00,4.669189453125000000e+00,-7.400512695312500000e+00,4.318237304687500000e+00
1.864181041717529297e+00,-4.613626480102539062e+00,-8.315062522888183594e+00,-4.872200489044189453e+00,2.349853515625000000e+00,-7.400512695312500000e+00,4.318237304687500000e+00
1.881327152252197266e+00,-4.127603530883789062e+00,-8.068459510803222656e+00,-4.865017890930175781e+00,2.044677734375000000e+00,-6.141662597656250000e+00,4.318237304687500000e+00
1.891617059707641602e+00,-4.127603530883789062e+00,-8.075642585754394531e+00,-4.865017890930175781e+00,-2.716064453125000000e+00,-3.227233886718750000e+00,5.500793457031250000e+00
1.905879497528076172e+00,-4.371812343597412109e+00,-8.075642585754394531e+00,-4.867412090301513672e+00,-2.830505371093750000e+00,-3.227233886718750000e+00,5.500793457031250000e+00
1.920324563980102539e+00,-4.371812343597412109e+00,-8.075642585754394531e+00,-4.867412090301513672e+00,-2.830505371093750000e+00,-1.144409179687500000e+00,2.593994140625000000e-01
1.933282852172851562e+00,-4.299986362457275391e+00,-8.212111473083496094e+00,-4.522646903991699219e+00,-2.830505371093750000e+00,4.730224609375000000e-01,2.593994140625000000e-01
1.945251464843750000e+00,-4.299986362457275391e+00,-8.080430984497070312e+00,-4.522646903991699219e+00,-2.113342285156250000e+00,4.730224609375000000e-01,1.487731933593750000e+00
1.962466001510620117e+00,-4.369418144226074219e+00,-8.221688270568847656e+00,-4.522646903991699219e+00,-2.113342285156250000e+00,4.730224609375000000e-01,1.487731933593750000e+00
1.973575592041015625e+00,-4.369418144226074219e+00,-8.080430984497070312e+00,-4.599261283874511719e+00,-2.113342285156250000e+00,1.358032226562500000e+00,-1.586914062500000000e+00
1.986592531204223633e+00,-4.323928356170654297e+00,-8.216899871826171875e+00,-4.599261283874511719e+00,-2.738952636718750000e+00,1.358032226562500000e+00,-1.586914062500000000e+00
2.001484394073486328e+00,-4.323928356170654297e+00,-8.113949775695800781e+00,-4.716577053070068359e+00,-2.792358398437500000e+00,1.022338867187500000e+00,-1.525878906250000000e-02
2.013790607452392578e+00,-4.481945514678955078e+00,-8.113949775695800781e+00,-4.716577053070068359e+00,-2.792358398437500000e+00,-1.220703125000000000e-01,3.814697265625000000e-02
2.029511690139770508e+00,-4.481945514678955078e+00,-7.989450931549072266e+00,-4.587290287017822266e+00,-3.334045410156250000e+00,-1.220703125000000000e-01,3.814697265625000000e-02
2.043509006500244141e+00,-4.297592163085937500e+00,-7.958326339721679688e+00,-4.587290287017822266e+00,-3.005981445312500000e+00,-1.220703125000000000e-01,3.814697265625000000e-02
2.055929899215698242e+00,-4.249708175659179688e+00,-7.958326339721679688e+00,-4.587290287017822266e+00,-3.044128417968750000e+00,-1.678466796875000000e+00,1.731872558593750000e+00
2.068516016006469727e+00,-4.249708175659179688e+00,-7.900865554809570312e+00,-4.577713489532470703e+00,-3.044128417968750000e+00,-1.678466796875000000e+00,1.731872558593750000e+00
2.083241462707519531e+00,-4.249708175659179688e+00,-8.032546997070312500e+00,-4.577713489532470703e+00,-4.386901855468750000e+00,-1.541137695312500000e+00,1.556396484375000000e+00
2.095586538314819336e+00,-4.218583106994628906e+00,-8.061277389526367188e+00,-4.611232280731201172e+00,-4.386901855468750000e+00,-1.457214355468750000e+00,1.556396484375000000e+00
2.110492706298828125e+00,-4.218583106994628906e+00,-8.061277389526367188e+00,-4.656722068786621094e+00,-4.280090332031250000e+00,-8.087158203125000000e-01,1.419067382812500000e+00
2.122323036193847656e+00,-4.302380561828613281e+00,-8.042123794555664062e+00,-4.656722068786621094e+00,-3.868103027343750000e+00,-8.087158203125000000e-01,1.419067382812500000e+00
2.136716604232788086e+00,-4.302380561828613281e+00,-8.042123794555664062e+00,-4.656722068786621094e+00,-3.288269042968750000e+00,-9.155273437500000000e-02,1.296997070312500000e-01
2.151660442352294922e+00,-4.206612110137940341e+00,-8.034940719604492188e+00,-4.661510467529296875e+00,-3.288269042968750000e+00,-9.155273437500000000e-02,1.296997070312500000e-01
2.163619518280029297e+00,-4.206612110137940341e+00,-8.034940719604492188e+00,-4.661510467529296875e+00,-3.059387207031250000e+00,-2.365112304687500000e-01,9.231567382812500000e-01
2.179014444351196289e+00,-4.410119533538818359e+00,-8.018181800842285156e+00,-4.580107688903808594e+00,-2.914428710937500000e+00,-4.196166992187500000e-01,9.231567382812500000e-01
2.191194772720336914e+00,-4.410119533538818359e+00,-8.018181800842285156e+00,-4.580107688903808594e+00,-2.914428710937500000e+00,-2.365112304687500000e-01,-5.340576171875000000e-01
2.206542015075683594e+00,-4.278438568115234375e+00,-8.063671112060546875e+00,-4.604049682617188388e+00,-3.341674804687500000e+00,4.730224609375000000e-01,-5.340576171875000000e-01
2.220788240432739258e+00,-4.278438568115234375e+00,-8.063671112060546875e+00,-4.654327869415283203e+00,-3.349304199218750000e+00,4.730224609375000000e-01,6.103515625000000000e-02
2.233561515808105469e+00,-4.307168960571289062e+00,-8.063671112060546875e+00,-4.654327869415283203e+00,-3.501892089843750000e+00,3.280639648437500000e-01,2.365112304687500000e-01
2.248346805572509766e+00,-4.307168960571289062e+00,-8.063671112060546875e+00,-4.618414878845214844e+00,-3.677368164062500000e+00,1.373291015625000000e-01,2.441406250000000000e-01
2.260457038879394531e+00,-4.357447147369384766e+00,-8.063671112060546875e+00,-4.618414878845214844e+00,-3.944396972656250000e+00,1.068115234375000000e-01,4.272460937500000000e-01
2.274792194366455078e+00,-4.302380561828613281e+00,-8.097189903259277344e+00,-4.623203277587890625e+00,-4.150390625000000000e+00,-5.035400390625000000e-01,1.312255859375000000e+00
2.286649942398071289e+00,-4.319139957427978516e+00,-8.042123794555664062e+00,-4.623203277587890625e+00,-4.150390625000000000e+00,-9.307861328125000000e-01,1.396179199218750000e+00
2.302516937255859375e+00,-4.319139957427978516e+00,-8.003816604614257812e+00,-4.541800498962402344e+00,-4.051208496093750000e+00,-5.035400390625000000e-01,1.678466796875000000e+00
2.317651271820068359e+00,-4.319139957427978516e+00,-8.003816604614257812e+00,-4.541800498962402344e+00,-4.051208496093750000e+00,-5.798339843750000000e-01,1.396179199218750000e+00
2.328849792480468750e+00,-4.319139957427978516e+00,-8.106766700744628906e+00,-4.608838081359863281e+00,-4.051208496093750000e+00,-5.798339843750000000e-01,1.274108886718750000e+00
2.343525409698486328e+00,-4.314351558685302734e+00,-8.106766700744628906e+00,-4.625597476959228516e+00,-3.128051757812500000e+00,-5.798339843750000000e-01,1.029968261718750000e+00
2.356349706649780273e+00,-4.314351558685302734e+00,-8.037335395812988281e+00,-4.625597476959228516e+00,-3.120422363281250000e+00,-3.128051757812500000e-01,8.010864257812500000e-01
2.372250556945800781e+00,-4.261679172515869141e+00,-7.977479934692382812e+00,-4.563348293304443359e+00,-3.120422363281250000e+00,-2.212524414062500000e-01,2.822875976562500000e-01
2.388496398925781250e+00,-4.261679172515869141e+00,-8.037335395812988281e+00,-4.563348293304443359e+00,-3.120422363281250000e+00,2.593994140625000000e-01,2.746582031250000000e-01
2.399033784866333008e+00,-4.362235546112060547e+00,-8.075642585754394531e+00,-4.563348293304443359e+00,-3.417968750000000000e+00,1.296997070312500000e-01,2.746582031250000000e-01
2.413166999816894531e+00,-4.395754337310791016e+00,-8.099584579467773438e+00,-4.546588897705078125e+00,-2.914428710937500000e+00,6.332397460937500000e-01,1.678466796875000000e-01
2.427270889282226562e+00,-4.395754337310791016e+00,-8.075642585754394531e+00,-4.546588897705078125e+00,-3.417968750000000000e+00,2.441406250000000000e-01,-4.577636718750000000e-02
2.439692497253417969e+00,-4.328716754913330078e+00,-7.994239330291748047e+00,-4.632780075073242188e+00,-3.677368164062500000e+00,1.022338867187500000e+00,-1.144409179687500000e-01
2.455703973770141602e+00,-4.328716754913330078e+00,-7.994239330291748047e+00,-4.704606056213378906e+00,-3.730773925781250000e+00,2.441406250000000000e-01,-4.577636718750000000e-02
2.469447612762451172e+00,-4.362235546112060547e+00,-8.042123794555664062e+00,-4.704606056213378906e+00,-3.707885742187500000e+00,-4.730224609375000000e-01,6.790161132812500000e-01
2.482223272323608398e+00,-4.362235546112060547e+00,-8.042123794555664062e+00,-4.680664062500000000e+00,-3.845214843750000000e+00,-6.484985351562500000e-01,9.078979492187500000e-01
2.493903398513793945e+00,-4.345476150512695312e+00,-8.034940719604492188e+00,-4.656722068786621094e+00,-3.707885742187500000e+00,-6.484985351562500000e-01,9.078979492187500000e-01
2.511421918869018555e+00,-4.280832767486572266e+00,-8.008605003356933594e+00,-4.582501888275146484e+00,-3.829956054687500000e+00,-1.007080078125000000e+00,1.129150390625000000e+00
2.521722793579101562e+00,-4.280832767486572266e+00,-8.015787124633789062e+00,-4.582501888275146484e+00,-3.829956054687500000e+00,-5.111694335937500000e-01,1.556396484375000000e+00
2.536517143249511719e+00,-4.280832767486572266e+00,-8.015787124633789062e+00,-4.594472885131835938e+00,-3.837585449218750000e+00,-5.111694335937500000e-01,1.556396484375000000e+00
2.553486585617065430e+00,-4.352658748626708984e+00,-8.140285491943359375e+00,-4.704606056213378906e+00,-3.837585449218750000e+00,-5.111694335937500000e-01,7.400512695312500000e-01
2.566742420196533203e+00,-4.352658748626708984e+00,-8.140285491943359375e+00,-4.711788654327392578e+00,-3.356933593750000000e+00,-6.484985351562500000e-01,4.348754882812500000e-01
2.578582048416137695e+00,-4.235342502593994141e+00,-8.042123794555664062e+00,-4.711788654327392578e+00,-3.112792968750000000e+00,-6.484985351562500000e-01,4.348754882812500000e-01
2.592393398284912109e+00,-4.235342502593994141e+00,-8.039729118347167969e+00,-4.594472885131835938e+00,-3.112792968750000000e+00,-6.179809570312500000e-01,5.111694335937500000e-01
2.606008291244506836e+00,-4.304774761199951172e+00,-8.042123794555664062e+00,-4.594472885131835938e+00,-3.433227539062500000e+00,2.288818359375000000e-02,5.111694335937500000e-01
2.616722583770751953e+00,-4.304774761199951172e+00,-7.999027729034423828e+00,-4.601655483245849609e+00,-3.440856933593750000e+00,4.119873046875000000e-01,6.103515625000000000e-02
2.634555816650390625e+00,-4.304774761199951172e+00,-7.999027729034423828e+00,-4.637568473815917969e+00,-3.433227539062500000e+00,4.119873046875000000e-01,6.103515625000000000e-02
2.645467519760131836e+00,-4.350264549255371094e+00,-7.999027729034423828e+00,-4.637568473815917969e+00,-3.448486328125000000e+00,8.392333984375000000e-02,2.517700195312500000e-01
2.658988475799560547e+00,-4.359841346740722656e+00,-7.994239330291748047e+00,-4.596867084503173828e+00,-3.501892089843750000e+00,-1.525878906250000000e-02,2.975463867187500000e-01
2.673735857009887695e+00,-4.359841346740722656e+00,-8.058882713317871094e+00,-4.584896087646484375e+00,-3.524780273437500000e+00,-2.288818359375000000e-01,3.585815429687500000e-01
2.686296224594116211e+00,-4.359841346740722656e+00,-8.058882713317871094e+00,-4.479551315307617188e+00,-3.814697265625000000e+00,-2.670288085937500000e-01,7.934570312500000000e-01
2.701931476593017578e+00,-4.355052947998046875e+00,-8.058882713317871094e+00,-4.525041103363037109e+00,-4.135131835937500000e+00,-3.662109375000000000e-01,9.384155273437500000e-01
2.712765455245971680e+00,-4.273650169372558594e+00,-8.039729118347167969e+00,-4.525041103363037109e+00,-3.814697265625000000e+00,-6.332397460937500000e-01,1.022338867187500000e+00
