# elapsed time, f1_acc_x, f1_acc_y, f1_acc_z, f1_gyro_x, f1_gyro_y, f1_gyro_z
7.058174610137939453e-01,-2.205059766769409180e+00,-1.271321058273315430e+00,-1.036689281463623047e+01,-3.494262695312500000e+00,-9.918212890625000000e-02,5.264282226562500000e-01
7.213973999023437500e-01,-2.205059766769409180e+00,-1.271321058273315430e+00,-1.037646961212158203e+01,-3.562927246093750000e+00,-9.918212890625000000e-02,5.187988281250000000e-01
7.382214069366455078e-01,-2.209848165512084961e+00,-1.254561662673950195e+00,-1.037646961212158203e+01,-3.501892089843750000e+00,-9.918212890625000000e-02,5.187988281250000000e-01
7.489838600158691406e-01,-2.224213361740112305e+00,-1.273715257644653098e+00,-1.030703830718993963e+01,-3.501892089843750000e+00,-9.918212890625000000e-02,5.187988281250000000e-01
7.629749774932861328e-01,-2.224213361740112305e+00,-1.273715257644653098e+00,-1.030703830718993963e+01,-3.501892089843750000e+00,-6.103515625000000000e-02,6.942749023437500000e-01
7.770652770996093750e-01,-2.231395959854125977e+00,-1.276109457015991211e+00,-1.036449909210205078e+01,-3.540039062500000000e+00,-1.754760742187500000e-01,6.942749023437500000e-01
7.903423309326171875e-01,-2.207453966140747070e+00,-1.288080453872680886e+00,-1.036449909210205078e+01,-3.540039062500000000e+00,-1.754760742187500000e-01,5.645751953125000000e-01
8.013982772827148438e-01,-2.207453966140747070e+00,-1.343147158622741699e+00,-1.032140350341796875e+01,-3.562927246093750000e+00,-1.754760742187500000e-01,4.730224609375000000e-01
8.191077709197998047e-01,-2.207453966140747070e+00,-1.343147158622741699e+00,-1.028788471221923828e+01,-3.562927246093750000e+00,-2.365112304687500000e-01,5.416870117187500000e-01
8.319971561431884766e-01,-2.195482969284057617e+00,-1.328781962394714355e+00,-1.028788471221923828e+01,-3.562927246093750000e+00,-2.441406250000000000e-01,5.187988281250000000e-01
8.434166908264160156e-01,-2.183511972427368164e+00,-1.323993563652038574e+00,-1.024718284606933594e+01,-3.578186035156250000e+00,-2.441406250000000000e-01,5.187988281250000000e-01
8.623116016387939453e-01,-2.171540975570678711e+00,-1.307234048843383789e+00,-1.028309631347656250e+01,-3.562927246093750000e+00,-1.754760742187500000e-01,5.187988281250000000e-01
8.731114864349365234e-01,-2.178723573684692383e+00,-1.307234048843383789e+00,-1.028309631347656250e+01,-3.562927246093750000e+00,-1.754760742187500000e-01,6.408691406250000000e-01
8.863811492919921875e-01,-2.178723573684692383e+00,-1.244984865188598633e+00,-1.030703830718993963e+01,-3.562927246093750000e+00,-1.754760742187500000e-01,6.408691406250000000e-01
9.032697677612304688e-01,-2.178723573684692383e+00,-1.244984865188598633e+00,-1.033576869964599609e+01,-3.540039062500000000e+00,-2.365112304687500000e-01,5.874633789062500000e-01
9.138467311859130859e-01,-2.173935174942016602e+00,-1.264138460159301758e+00,-1.033576869964599609e+01,-3.524780273437500000e+00,-1.525878906250000000e-02,4.653930664062500000e-01
9.282813072204589844e-01,-2.173935174942016602e+00,-1.264138460159301758e+00,-1.033576869964599609e+01,-3.524780273437500000e+00,-1.754760742187500000e-01,4.653930664062500000e-01
9.393906593322753906e-01,-2.200271368026733398e+00,-1.254561662673950195e+00,-1.037168121337890625e+01,-3.463745117187500000e+00,-1.754760742187500000e-01,4.653930664062500000e-01
9.551944732666015625e-01,-2.200271368026733398e+00,-1.252167463302612305e+00,-1.032619190216064453e+01,-3.433227539062500000e+00,-1.754760742187500000e-01,4.653930664062500000e-01
9.695484638214111328e-01,-2.200271368026733398e+00,-1.254561662673950195e+00,-1.032619190216064453e+01,-3.433227539062500000e+00,-1.754760742187500000e-01,6.256103515625000000e-01
9.815173149108886719e-01,-2.195482969284057617e+00,-1.288080453872680886e+00,-1.032619190216064453e+01,-3.456115722656250000e+00,-1.754760742187500000e-01,6.027221679687500000e-01
9.964675903320312500e-01,-2.238578557968140093e+00,-1.288080453872680886e+00,-1.038844108581542969e+01,-3.517150878906250000e+00,-1.754760742187500000e-01,6.027221679687500000e-01
1.009441137313842773e+00,-2.207453966140747070e+00,-1.288080453872680886e+00,-1.038844108581542969e+01,-3.547668457031250000e+00,-1.373291015625000000e-01,5.950927734375000000e-01
1.023526668548583984e+00,-2.207453966140747070e+00,-1.259350061416625977e+00,-1.034773921966552734e+01,-3.524780273437500000e+00,1.144409179687500000e-01,4.501342773437500000e-01
1.035304307937622070e+00,-2.207453966140747070e+00,-1.295263051986694336e+00,-1.033337402343750000e+01,-3.547668457031250000e+00,7.629394531250000000e-02,4.501342773437500000e-01
1.050981283187866211e+00,-2.209848165512084961e+00,-1.319205164909362793e+00,-1.032619190216064453e+01,-3.623962402343750000e+00,7.629394531250000000e-02,4.501342773437500000e-01
1.065829515457153320e+00,-2.209848165512084961e+00,-1.319205164909362793e+00,-1.030703830718993963e+01,-3.623962402343750000e+00,3.051757812500000000e-02,3.967285156250000000e-01
1.078278064727783203e+00,-2.200271368026733398e+00,-1.259350061416625977e+00,-1.030703830718993963e+01,-3.578186035156250000e+00,-9.155273437500000000e-02,2.822875976562500000e-01
1.092796325683593750e+00,-2.200271368026733398e+00,-1.259350061416625977e+00,-1.034534549713134766e+01,-3.524780273437500000e+00,-9.155273437500000000e-02,2.822875976562500000e-01
1.105357885360717773e+00,-2.238578557968140093e+00,-1.254561662673950195e+00,-1.034534549713134766e+01,-3.524780273437500000e+00,-9.155273437500000000e-02,2.975463867187500000e-01
1.119805574417114258e+00,-2.279279947280883789e+00,-1.259350061416625977e+00,-1.031182670593261541e+01,-3.524780273437500000e+00,-5.340576171875000000e-02,5.645751953125000000e-01
1.135035991668701172e+00,-2.279279947280883789e+00,-1.249773263931274414e+00,-1.031182670593261541e+01,-3.501892089843750000e+00,-5.340576171875000000e-02,5.645751953125000000e-01
1.147201538085937500e+00,-2.279279947280883789e+00,-1.221042871475219505e+00,-1.027112483978271662e+01,-3.501892089843750000e+00,-6.866455078125000000e-02,5.645751953125000000e-01
1.162099361419677734e+00,-2.171540975570678711e+00,-1.204283475875854492e+00,-1.030943202972411932e+01,-3.501892089843750000e+00,-2.822875976562500000e-01,5.874633789062500000e-01
1.176478862762451172e+00,-2.193088769912720171e+00,-1.204283475875854492e+00,-1.030943202972411932e+01,-3.623962402343750000e+00,-6.866455078125000000e-02,3.814697265625000000e-01
1.189493894577026367e+00,-2.176329374313354492e+00,-1.204283475875854492e+00,-1.030943202972411932e+01,-3.623962402343750000e+00,-9.155273437500000000e-02,4.348754882812500000e-01
1.203835010528564453e+00,-2.176329374313354492e+00,-1.256955862045288086e+00,-1.030943202972411932e+01,-3.623962402343750000e+00,-9.155273437500000000e-02,4.348754882812500000e-01
1.215352535247802734e+00,-2.176329374313354492e+00,-1.256955862045288086e+00,-1.029746150970458984e+01,-3.570556640625000000e+00,-9.155273437500000000e-02,5.493164062500000000e-01
1.231125354766845703e+00,-2.207453966140747070e+00,-1.309628367424011230e+00,-1.029746150970458984e+01,-3.547668457031250000e+00,-7.629394531250000000e-02,5.798339843750000000e-01
1.359525918960571289e+00,-2.207453966140747070e+00,-1.309628367424011230e+00,-1.029746150970458984e+01,-3.547668457031250000e+00,-7.629394531250000000e-02,5.493164062500000000e-01
1.370863437652587891e+00,-5.722141861915588379e-01,-1.309628367424011230e+00,-7.448361396789550781e+00,1.144180297851562358e+02,-1.052856445312500000e+01,5.798339843750000000e-01
1.383684873580932617e+00,-5.722141861915588379e-01,-3.019088268280029297e+00,-7.448361396789550781e+00,1.476287841796875000e+02,-1.362609863281250000e+01,5.088806152343750000e+00
1.401209592819213867e+00,-2.535459518432617188e+00,-5.193023204803466797e+00,-1.313219642639160156e+01,1.476287841796875000e+02,-1.052856445312500000e+01,5.088806152343750000e+00
1.411755800247192383e+00,-4.958391666412353516e+00,-5.334281444549560547e+00,-1.335246276855468750e+01,1.765518188476562500e+02,-1.175689697265625000e+01,-8.422851562500000000e+00
1.426047801971435547e+00,-4.958391666412353516e+00,-5.657498359680175781e+00,-1.335246276855468750e+01,2.178955078125000000e+02,-9.803771972656250000e+00,-3.396606445312500000e+01
1.440182447433471680e+00,-1.896207690238952859e+00,-5.334281444549560547e+00,-1.249294471740722834e+01,2.483062744140625000e+02,-1.175689697265625000e+01,-3.396606445312500000e+01
1.452535867691040039e+00,-1.896207690238952859e+00,-4.517858505249023438e+00,-8.250418663024902344e+00,2.483062744140625000e+02,-9.803771972656250000e+00,-2.956390380859375000e+01
1.468156576156616211e+00,-1.936909198760986328e+00,-4.395754337310791016e+00,-5.018246650695800781e+00,2.350006103515625000e+02,-8.987426757812500000e+00,-2.956390380859375000e+01
1.482104301452636719e+00,-1.936909198760986328e+00,-4.395754337310791016e+00,-5.018246650695800781e+00,2.009429931640625000e+02,-4.890441894531250000e+00,-2.956390380859375000e+01
1.494947910308837891e+00,-1.472434043884277122e+00,-6.370970726013183594e+00,-5.635950565338134766e+00,1.743850708007812500e+02,-2.708435058593750000e+00,-3.338623046875000000e+01
1.506656885147094727e+00,-1.472434043884277122e+00,-7.086836814880371094e+00,-6.830657482147216797e+00,1.743850708007812500e+02,-4.890441894531250000e+00,-2.555084228515625000e+01
1.524135351181030273e+00,-1.472434043884277122e+00,-7.876923561096191406e+00,-6.830657482147216797e+00,1.956939697265625000e+02,-1.998901367187500000e+00,-3.338623046875000000e+01
1.537203311920166016e+00,-1.869871497154236062e+00,-8.710105895996093750e+00,-8.207323074340820312e+00,1.979751586914062500e+02,-1.166534423828125000e+01,-1.355743408203125000e+01
1.548452377319335938e+00,1.527500629425048828e+00,-8.710105895996093750e+00,-7.522581577301025391e+00,2.199401855468750000e+02,5.172729492187500000e+00,-3.892517089843750000e+01
1.566192388534545898e+00,-7.000645637512207031e+00,-7.364564418792724609e+00,-7.522581577301025391e+00,2.240142822265625000e+02,4.760742187500000000e+00,-3.892517089843750000e+01
1.579324722290039062e+00,3.794809579849243164e+00,-7.364564418792724609e+00,-7.522581577301025391e+00,2.499923706054687500e+02,4.760742187500000000e+00,-3.892517089843750000e+01
1.590800285339355469e+00,-7.790732383728027344e+00,-6.722918033599853516e+00,-4.843470096588134766e+00,2.499923706054687500e+02,-1.271820068359375000e+01,-3.491973876953125000e+01
1.608270883560180664e+00,2.413355350494384766e+00,-8.477868080139160156e+00,-3.591302394866943803e+00,2.499923706054687500e+02,-1.271820068359375000e+01,-3.491973876953125000e+01
1.618937253952026367e+00,-4.867412090301513672e+00,-8.477868080139160156e+00,-1.908178687095642090e+00,2.499923706054687500e+02,-1.271820068359375000e+01,-3.491973876953125000e+01
1.633704185485839844e+00,2.413355350494384766e+00,-8.477868080139160156e+00,-3.131615877151489258e+00,2.362976074218750000e+02,-9.574890136718750000e+00,-3.090667724609375000e+01
1.645263671875000000e+00,-4.414907932281494141e+00,-9.176975250244140625e+00,-1.908178687095642090e+00,2.499923706054687500e+02,-1.309204101562500000e+01,-2.690124511718750000e+01
1.659461498260498047e+00,2.681505978107451837e-01,-8.300697326660156250e+00,-1.675941109657287598e+00,2.499923706054687500e+02,-9.574890136718750000e+00,-2.690124511718750000e+01
1.674749374389648438e+00,-2.027888774871826172e+00,-7.771578788757324219e+00,-1.628057122230529785e+00,2.499923706054687500e+02,-1.142120361328125000e+01,-2.645874023437500000e+01
1.686866760253906250e+00,-2.106897532939910889e-01,-7.771578788757324219e+00,1.359906554222106934e+00,2.499923706054687500e+02,-7.980346679687500000e+00,-3.374481201171875000e+01
1.701346158981323242e+00,-1.256955862045288086e+00,-7.896077156066894531e+00,1.771709203720092773e+00,2.492523193359375000e+02,-1.000976562500000000e+01,-2.767944335937500000e+01
1.713514089584350586e+00,-2.106897532939910889e-01,-7.896077156066894531e+00,2.554613113403320312e+00,2.312927246093750000e+02,-1.000976562500000000e+01,-2.767944335937500000e+01
1.728982925415039062e+00,-1.256955862045288086e+00,-7.896077156066894531e+00,2.554613113403320312e+00,1.031799316406250000e+02,-1.000976562500000000e+01,-7.202148437500000000e+00
1.741101503372192383e+00,-1.843535304069519043e+00,-9.078812599182127130e+00,8.092401623725891113e-01,2.397155761718750000e+01,-6.629943847656250000e+00,-7.202148437500000000e+00
1.755789279937744141e+00,-1.843535304069519043e+00,-9.078812599182127130e+00,8.092401623725891113e-01,2.714538574218750000e+01,-4.753112792968750000e+00,-7.202148437500000000e+00
1.770389795303344727e+00,-2.013523578643798828e+00,-9.078812599182127130e+00,2.408566951751708984e+00,2.397155761718750000e+01,-6.629943847656250000e+00,-3.997802734375000000e+00
1.783321857452392578e+00,-1.350329756736755371e+00,-9.890446662902832031e+00,2.463633537292480469e+00,1.616668701171875000e+01,-8.789062500000000000e+00,5.599975585937500000e+00
1.798011779785156250e+00,-1.350329756736755371e+00,-9.890446662902832031e+00,2.463633537292480469e+00,8.552551269531250000e+00,-8.789062500000000000e+00,5.599975585937500000e+00
1.809888601303100586e+00,-1.005564689636230469e+00,-9.184157371520996094e+00,2.463633537292480469e+00,1.594543457031250000e+00,-1.480102539062500000e+00,7.400512695312500000e-01
1.825093269348144531e+00,-6.775590777397155762e-01,-9.184157371520996094e+00,2.406172752380371094e+00,-3.715515136718750000e+00,-1.480102539062500000e+00,7.400512695312500000e-01
1.839732885360717773e+00,-6.775590777397155762e-01,-9.387664794921876776e+00,2.331952333450317383e+00,-3.715515136718750000e+00,3.303527832031250000e+00,-3.356933593750000000e-01
1.851484060287475586e+00,-1.125274777412414551e+00,-9.387664794921876776e+00,2.406172752380371094e+00,-2.334594726562500000e+00,-1.296997070312500000e+00,1.403808593750000000e+00
1.867357015609741211e+00,-1.125274777412414551e+00,-9.356539726257324219e+00,2.528276920318603516e+00,-2.334594726562500000e+00,3.089904785156250000e+00,-3.356933593750000000e-01
1.878319740295410156e+00,-8.978255987167358398e-01,-9.356539726257324219e+00,2.528276920318603516e+00,-3.311157226562500000e+00,-1.296997070312500000e+00,1.205444335937500000e+00
1.894691228866577148e+00,-8.978255987167358398e-01,-9.339780807495115411e+00,2.272097349166870117e+00,-3.311157226562500000e+00,-1.312255859375000000e+00,1.205444335937500000e+00
1.905241727828979492e+00,-1.118092179298400879e+00,-9.311050415039062500e+00,2.272097349166870117e+00,-2.525329589843750000e+00,-1.380920410156250000e+00,1.708984375000000000e+00
1.920676469802856445e+00,-1.118092179298400879e+00,-9.311050415039062500e+00,2.391807556152344194e+00,-2.197265625000000000e+00,-1.312255859375000000e+00,1.708984375000000000e+00
1.932953357696533203e+00,-9.935936927795410156e-01,-9.425971984863279474e+00,2.501940727233886719e+00,-2.525329589843750000e+00,-1.983642578125000000e-01,8.621215820312500000e-01
1.947921276092529297e+00,-8.212111592292785645e-01,-9.437942504882812500e+00,2.501940727233886719e+00,-4.295349121093750000e+00,6.103515625000000000e-01,8.621215820312500000e-01
1.963062047958374023e+00,-8.212111592292785645e-01,-9.437942504882812500e+00,2.466027736663818359e+00,-4.295349121093750000e+00,-1.983642578125000000e-01,1.556396484375000000e+00
1.975116729736328125e+00,-1.019929885864257812e+00,-9.397241592407228339e+00,2.360682725906372070e+00,-3.295898437500000000e+00,6.103515625000000000e-01,1.556396484375000000e+00
1.989386796951293945e+00,-1.019929885864257812e+00,-9.397241592407228339e+00,2.375048160552978516e+00,-3.295898437500000000e+00,-7.629394531250000000e-01,1.510620117187500000e+00
2.002734422683715820e+00,-9.935936927795410156e-01,-9.634267807006835938e+00,2.360682725906372070e+00,-3.776550292968750000e+00,2.288818359375000000e-01,1.510620117187500000e+00
2.016624212265014648e+00,-9.576806426048279919e-01,-9.634267807006835938e+00,2.375048160552978516e+00,-3.776550292968750000e+00,-1.029968261718750000e+00,1.991271972656250000e+00
2.031419992446899414e+00,-9.935936927795410156e-01,-9.617507934570312500e+00,2.442085742950439453e+00,-3.486633300781250000e+00,2.288818359375000000e-01,1.991271972656250000e+00
2.043820381164550781e+00,-9.576806426048279919e-01,-9.583989143371582031e+00,2.442085742950439453e+00,-3.486633300781250000e+00,-4.730224609375000000e-01,3.814697265625000000e-01
2.056239128112792969e+00,-9.576806426048279919e-01,-9.440337181091308594e+00,2.430114746093750000e+00,-3.440856933593750000e+00,7.019042968750000000e-01,3.814697265625000000e-01
2.073087453842163086e+00,-9.576806426048279919e-01,-9.583989143371582031e+00,2.363076925277709961e+00,-3.440856933593750000e+00,-4.730224609375000000e-01,5.493164062500000000e-01
2.086166381835937500e+00,-1.017535686492919922e+00,-9.435548782348632812e+00,2.303221940994262695e+00,-3.425598144531250000e+00,5.416870117187500000e-01,5.493164062500000000e-01
2.097657918930053711e+00,-1.017535686492919922e+00,-9.402029991149902344e+00,2.303221940994262695e+00,-3.425598144531250000e+00,-4.577636718750000000e-02,9.918212890625000000e-02
2.115236043930053711e+00,-9.217676520347596325e-01,-9.402029991149902344e+00,2.461239337921142578e+00,-3.440856933593750000e+00,-4.577636718750000000e-02,9.918212890625000000e-02
2.126332283020019531e+00,-9.217676520347596325e-01,-9.411606788635253906e+00,2.461239337921142578e+00,-3.982543945312500000e+00,-7.629394531250000000e-02,9.765625000000000000e-01
2.139454603195190430e+00,-9.935936927795410156e-01,-9.411606788635253906e+00,2.418143749237060547e+00,-3.982543945312500000e+00,-7.629394531250000000e-02,9.918212890625000000e-01
2.154160022735595703e+00,-9.935936927795410156e-01,-9.471461296081544745e+00,2.343923330307006836e+00,-3.379821777343750000e+00,5.340576171875000000e-02,9.918212890625000000e-01
2.166513204574584961e+00,-9.624690413475035511e-01,-9.449913978576660156e+00,2.343923330307006836e+00,-3.356933593750000000e+00,5.340576171875000000e-02,3.890991210937500000e-01
2.178620576858520508e+00,-9.097966551780699573e-01,-9.449913978576660156e+00,2.348711729049682617e+00,-3.379821777343750000e+00,-5.569458007812500000e-01,3.890991210937500000e-01
2.196292877197265625e+00,-9.097966551780699573e-01,-9.449913978576660156e+00,2.379836559295654297e+00,-3.959655761718750000e+00,-5.569458007812500000e-01,1.533508300781250000e+00
2.208750963211059570e+00,-9.576806426048279919e-01,-9.452307701110839844e+00,2.348711729049682617e+00,-3.959655761718750000e+00,-5.493164062500000000e-01,1.533508300781250000e+00
2.220566987991333008e+00,-9.576806426048279919e-01,-9.452307701110839844e+00,2.377442359924316406e+00,-3.402709960937500000e+00,-2.746582031250000000e-01,4.577636718750000000e-01
2.238286256790161133e+00,-8.906430006027221680e-01,-9.423577308654783380e+00,2.377442359924316406e+00,-3.402709960937500000e+00,-5.493164062500000000e-01,4.577636718750000000e-01
2.249439239501953125e+00,-8.906430006027221680e-01,-9.423577308654783380e+00,2.377442359924316406e+00,-3.532409667968750000e+00,-3.051757812500000000e-01,8.392333984375000000e-01
2.263445615768432617e+00,-9.097966551780699573e-01,-9.452307701110839844e+00,2.329558134078979492e+00,-3.532409667968750000e+00,-6.408691406250000000e-01,8.392333984375000000e-01
2.274694204330444336e+00,-9.097966551780699573e-01,-9.461884498596191406e+00,2.300827741622924805e+00,-3.440856933593750000e+00,-3.051757812500000000e-01,5.416870117187500000e-01
2.289802551269531250e+00,-9.097966551780699573e-01,-9.464279174804687500e+00,2.300827741622924805e+00,-3.158569335937500000e+00,-6.408691406250000000e-01,5.416870117187500000e-01
2.301555633544921875e+00,-9.097966551780699573e-01,-9.461884498596191406e+00,2.382230758666992188e+00,-3.158569335937500000e+00,-2.136230468750000000e-01,1.091003417968750000e+00
2.316869974136352539e+00,-9.696516990661619984e-01,-9.414000511169433594e+00,2.382230758666992188e+00,-3.219604492187500000e+00,-6.179809570312500000e-01,1.091003417968750000e+00
2.332152366638183594e+00,-9.696516990661619984e-01,-9.409212112426757812e+00,2.379836559295654297e+00,-3.578186035156250000e+00,-2.136230468750000000e-01,8.239746093750000000e-01
2.344232797622680664e+00,-9.504980444908142090e-01,-9.409212112426757812e+00,2.322375535964965820e+00,-3.578186035156250000e+00,-1.068115234375000000e-01,6.027221679687500000e-01
2.359040975570678711e+00,-9.457096457481384277e-01,-9.409212112426757812e+00,2.322375535964965820e+00,-3.273010253906250000e+00,-1.068115234375000000e-01,6.027221679687500000e-01
2.370328664779663086e+00,-9.457096457481384277e-01,-9.449913978576660156e+00,2.322375535964965820e+00,-3.273010253906250000e+00,-2.822875976562500000e-01,8.087158203125000000e-01
2.385304450988769531e+00,-9.768342971801757812e-01,-9.452307701110839844e+00,2.398990154266357422e+00,-3.639221191406250000e+00,-6.332397460937500000e-01,8.087158203125000000e-01
2.397840261459350586e+00,-9.768342971801757812e-01,-9.466672897338867188e+00,2.398990154266357422e+00,-3.639221191406250000e+00,-2.975463867187500000e-01,8.468627929687500000e-01
2.412757396697998047e+00,-9.169792532920836292e-01,-9.452307701110839844e+00,2.296039342880249023e+00,-3.417968750000000000e+00,-2.975463867187500000e-01,7.247924804687500000e-01
2.424632072448730469e+00,-9.169792532920836292e-01,-9.452307701110839844e+00,2.296039342880249023e+00,-3.295898437500000000e+00,-2.975463867187500000e-01,8.621215820312500000e-01
2.439786434173583984e+00,-9.409212470054626465e-01,-9.402029991149902344e+00,2.367865324020385742e+00,-3.295898437500000000e+00,-9.918212890625000000e-02,7.247924804687500000e-01
2.452179193496704102e+00,-9.624690413475035511e-01,-9.402029991149902344e+00,2.367865324020385742e+00,-3.746032714843750000e+00,5.340576171875000000e-02,8.850097656250000000e-01
2.466762065887451172e+00,-9.624690413475035511e-01,-9.406818389892578125e+00,2.303221940994262695e+00,-3.746032714843750000e+00,5.340576171875000000e-02,7.095336914062500000e-01
2.482159137725830078e+00,-9.552864432334899902e-01,-9.421183586120603692e+00,2.288856744766235796e+00,-3.433227539062500000e+00,-2.136230468750000000e-01,7.095336914062500000e-01
2.494264841079711914e+00,-9.026139974594116211e-01,-9.421183586120603692e+00,2.303221940994262695e+00,-3.433227539062500000e+00,-2.136230468750000000e-01,4.119873046875000000e-01
2.508247613906860352e+00,-9.552864432334899902e-01,-9.425971984863279474e+00,2.308010339736938477e+00,-3.479003906250000000e+00,-1.449584960937500000e-01,4.119873046875000000e-01
2.520704746246337891e+00,-9.026139974594116211e-01,-9.442730903625488281e+00,2.370259761810302734e+00,-3.479003906250000000e+00,1.983642578125000000e-01,4.119873046875000000e-01
2.535454273223876953e+00,-9.169792532920836292e-01,-9.512163162231443536e+00,2.370259761810302734e+00,-3.402709960937500000e+00,-1.449584960937500000e-01,5.493164062500000000e-01
2.550850391387939453e+00,-9.169792532920836292e-01,-9.512163162231443536e+00,2.298433542251586914e+00,-3.402709960937500000e+00,1.983642578125000000e-01,2.899169921875000000e-01
2.562911987304687500e+00,-9.169792532920836292e-01,-9.402029991149902344e+00,2.298433542251586914e+00,-3.486633300781250000e+00,-3.814697265625000000e-01,5.493164062500000000e-01
2.577619314193725586e+00,-9.600748419761657715e-01,-9.402029991149902344e+00,2.406172752380371094e+00,-3.791809082031250000e+00,-3.814697265625000000e-01,5.722045898437500000e-01
2.589752674102783203e+00,-9.600748419761657715e-01,-9.402029991149902344e+00,2.406172752380371094e+00,-3.868103027343750000e+00,-3.814697265625000000e-01,5.798339843750000000e-01
2.605542421340942383e+00,-9.600748419761657715e-01,-9.440337181091308594e+00,2.288856744766235796e+00,-3.868103027343750000e+00,-1.220703125000000000e-01,5.798339843750000000e-01
2.616368532180786133e+00,-9.552864432334899902e-01,-9.437942504882812500e+00,2.288856744766235796e+00,-3.517150878906250000e+00,-1.220703125000000000e-01,5.798339843750000000e-01
2.631476402282714844e+00,-9.050082564353943981e-01,-9.437942504882812500e+00,2.286462545394897017e+00,-3.517150878906250000e+00,-4.043579101562500000e-01,7.476806640625000000e-01
2.648216962814331055e+00,-9.050082564353943981e-01,-9.437942504882812500e+00,2.339134931564331055e+00,-3.631591796875000000e+00,-4.043579101562500000e-01,7.476806640625000000e-01
2.661222457885742188e+00,-8.978255987167358398e-01,-9.433154106140136719e+00,2.375048160552978516e+00,-3.738403320312500000e+00,-1.449584960937500000e-01,3.204345703125000000e-01
2.674021482467651367e+00,-9.864110946655272327e-01,-9.433154106140136719e+00,2.375048160552978516e+00,-3.890991210937500000e+00,-1.296997070312500000e-01,3.204345703125000000e-01
2.685920953750610352e+00,-9.744400978088380016e-01,-9.478644371032716620e+00,2.375048160552978516e+00,-3.738403320312500000e+00,-1.296997070312500000e-01,3.356933593750000000e-01
2.703197479248046875e+00,-9.864110946655272327e-01,-9.478644371032716620e+00,2.372653961181640625e+00,-3.890991210937500000e+00,2.517700195312500000e-01,4.882812500000000000e-01
