# elapsed time, f3_acc_x, f3_acc_y, f3_acc_z, f3_gyro_x, f3_gyro_y, f3_gyro_z
4.636669683456420898e+01,-9.792284965515135609e-01,-7.917624950408934659e+00,5.030217647552490234e+00,-3.578186035156250000e+00,-3.890991210937500000e-01,2.288818359375000000e-01
4.638180994987487793e+01,-9.361328482627867542e-01,-7.857769966125487393e+00,5.073313236236572266e+00,-3.631591796875000000e+00,-4.577636718750000000e-01,2.746582031250000000e-01
4.639367270469665527e+01,-9.361328482627867542e-01,-7.857769966125487393e+00,5.039794445037841797e+00,-3.631591796875000000e+00,-4.577636718750000000e-01,3.204345703125000000e-01
4.640780735015869141e+01,-9.935936927795409046e-01,-7.893682956695557529e+00,5.039794445037841797e+00,-3.562927246093750000e+00,-3.585815429687500000e-01,3.204345703125000000e-01
4.642095994949340820e+01,-1.017535686492920144e+00,-7.996633529663085938e+00,5.039794445037841797e+00,-3.562927246093750000e+00,-3.051757812500000000e-01,1.754760742187500000e-01
4.643570828437805176e+01,-9.935936927795409046e-01,-7.958326339721679688e+00,5.011064052581787109e+00,-3.562927246093750000e+00,-2.670288085937500000e-01,1.754760742187500000e-01
4.644775748252868652e+01,-1.024718284606933594e+00,-7.958326339721679688e+00,5.011064052581787109e+00,-3.593444824218750000e+00,-2.670288085937500000e-01,3.585815429687500000e-01
4.646310710906982422e+01,-1.027112483978271706e+00,-7.958326339721679688e+00,5.011064052581787109e+00,-3.639221191406250000e+00,-2.059936523437500000e-01,4.501342773437500000e-01
4.647388386726379395e+01,-1.027112483978271706e+00,-7.941566944122313565e+00,4.967968463897705078e+00,-3.639221191406250000e+00,-2.212524414062500000e-01,3.585815429687500000e-01
4.648933124542236328e+01,-1.027112483978271706e+00,-7.960720539093017578e+00,5.003881454467773438e+00,-3.654479980468750000e+00,-2.212524414062500000e-01,2.212524414062500000e-01
4.650373816490173340e+01,-1.012747287750243919e+00,-7.941566944122313565e+00,5.003881454467773438e+00,-3.639221191406250000e+00,-3.051757812500000000e-01,2.212524414062500000e-01
4.651627445220947266e+01,-9.792284965515135609e-01,-7.898471355438232422e+00,5.044582843780518466e+00,-3.654479980468750000e+00,-4.959106445312500000e-01,2.899169921875000000e-01
4.653102588653564453e+01,-9.792284965515135609e-01,-7.898471355438232422e+00,5.094861030578613281e+00,-3.784179687500000000e+00,-4.043579101562500000e-01,3.890991210937500000e-01
4.654512882232666016e+01,-9.409212470054626465e-01,-7.867346763610839844e+00,5.094861030578613281e+00,-3.784179687500000000e+00,-4.959106445312500000e-01,5.722045898437500000e-01
4.655787086486816406e+01,-9.361328482627867542e-01,-7.900865554809570312e+00,5.073313236236572266e+00,-3.486633300781250000e+00,-4.043579101562500000e-01,5.722045898437500000e-01
4.657000494003295898e+01,-9.361328482627867542e-01,-7.900865554809570312e+00,5.073313236236572266e+00,-3.486633300781250000e+00,-3.509521484375000000e-01,5.035400390625000000e-01
4.658785462379455566e+01,-9.481038451194764294e-01,-7.936778545379638672e+00,5.073313236236572266e+00,-3.593444824218750000e+00,-2.212524414062500000e-01,4.425048828125000000e-01
4.659842801094055176e+01,-9.864110946655272327e-01,-7.982268333435058594e+00,5.061342239379882812e+00,-3.700256347656250000e+00,-3.509521484375000000e-01,4.425048828125000000e-01
4.661247396469116211e+01,-1.010353088378906250e+00,-7.982268333435058594e+00,5.061342239379882812e+00,-3.700256347656250000e+00,-2.212524414062500000e-01,4.272460937500000000e-01
4.662925887107849121e+01,-1.010353088378906250e+00,-7.958326339721679688e+00,5.061342239379882812e+00,-3.631591796875000000e+00,-3.051757812500000000e-01,2.136230468750000000e-01
4.663974285125732422e+01,-1.003170490264892578e+00,-7.958326339721679688e+00,5.099649429321289062e+00,-3.562927246093750000e+00,-3.051757812500000000e-01,2.136230468750000000e-01
4.665377306938171387e+01,-1.003170490264892578e+00,-7.903259754180907315e+00,5.025429248809815341e+00,-3.631591796875000000e+00,-3.051757812500000000e-01,2.136230468750000000e-01
4.666836905479431152e+01,-1.007958889007568359e+00,-7.960720539093017578e+00,5.049371242523193359e+00,-3.608703613281250000e+00,-2.975463867187500000e-01,2.746582031250000000e-01
4.668128228187561035e+01,-1.043871879577636719e+00,-7.970297336578369141e+00,5.049371242523193359e+00,-3.608703613281250000e+00,-2.975463867187500000e-01,2.746582031250000000e-01
4.669278645515441895e+01,-1.043871879577636719e+00,-7.970297336578369141e+00,5.049371242523193359e+00,-3.578186035156250000e+00,-4.119873046875000000e-01,2.746582031250000000e-01
4.671077418327331543e+01,-1.017535686492920144e+00,-7.927201747894287109e+00,5.056553840637207031e+00,-3.570556640625000000e+00,-4.501342773437500000e-01,2.517700195312500000e-01
4.672131538391113281e+01,-1.017535686492920144e+00,-7.927201747894287109e+00,5.027823448181152344e+00,-3.570556640625000000e+00,-4.119873046875000000e-01,3.051757812500000000e-01
4.673612666130065918e+01,-1.031900882720947266e+00,-7.924807548522949219e+00,5.027823448181152344e+00,-3.494262695312500000e+00,-3.890991210937500000e-01,2.517700195312500000e-01
4.675231385231018066e+01,-1.031900882720947266e+00,-7.953537940979003906e+00,5.015852451324462891e+00,-3.395080566406250000e+00,-3.280639648437500000e-01,4.043579101562500000e-01
4.676340723037719727e+01,-1.012747287750243919e+00,-7.953537940979003906e+00,5.015852451324462891e+00,-3.494262695312500000e+00,-3.280639648437500000e-01,3.051757812500000000e-01
4.677736949920654297e+01,-1.012747287750243919e+00,-7.953537940979003906e+00,5.015852451324462891e+00,-3.395080566406250000e+00,-3.280639648437500000e-01,3.051757812500000000e-01
4.678891730308532715e+01,-1.039083480834960938e+00,-7.931990146636962891e+00,5.015852451324462891e+00,-3.288269042968750000e+00,-3.967285156250000000e-01,2.746582031250000000e-01
4.680431199073791504e+01,-1.039083480834960938e+00,-7.931990146636962891e+00,4.999093055725097656e+00,-3.196716308593750000e+00,-3.967285156250000000e-01,2.746582031250000000e-01
4.681612634658813477e+01,-9.816226959228515625e-01,-7.931990146636962891e+00,4.989516258239746094e+00,-3.196716308593750000e+00,-3.967285156250000000e-01,3.662109375000000000e-01
4.683150887489318848e+01,-8.882488012313842773e-01,-7.917624950408934659e+00,4.989516258239746094e+00,-3.646850585937500000e+00,-3.433227539062500000e-01,3.890991210937500000e-01
4.684639549255371094e+01,-8.882488012313842773e-01,-7.888894557952880859e+00,5.018246650695800781e+00,-3.646850585937500000e+00,-3.433227539062500000e-01,3.890991210937500000e-01
4.685806155204772949e+01,-9.792284965515135609e-01,-7.829039573669433594e+00,5.018246650695800781e+00,-3.593444824218750000e+00,-3.433227539062500000e-01,3.890991210937500000e-01
4.687315964698791504e+01,-1.067813992500305176e+00,-7.829039573669433594e+00,4.975151062011718750e+00,-3.593444824218750000e+00,-2.746582031250000000e-01,3.128051757812500000e-01
4.688506984710693359e+01,-1.067813992500305176e+00,-7.850587368011474609e+00,4.975151062011718750e+00,-3.616333007812500000e+00,-3.509521484375000000e-01,3.128051757812500000e-01
4.690080261230468750e+01,-1.000776290893554910e+00,-7.867346763610839844e+00,4.975151062011718750e+00,-3.952026367187500000e+00,-2.746582031250000000e-01,3.128051757812500000e-01
4.691331052780151367e+01,-1.000776290893554910e+00,-7.867346763610839844e+00,5.013458251953125000e+00,-3.952026367187500000e+00,-4.196166992187500000e-01,-2.212524414062500000e-01
4.692756819725036621e+01,-1.022324085235595703e+00,-7.867346763610839844e+00,5.013458251953125000e+00,-3.952026367187500000e+00,-3.890991210937500000e-01,1.068115234375000000e-01
4.693957042694091797e+01,-1.055842876434326172e+00,-7.771578788757324219e+00,5.070919036865233487e+00,-3.959655761718750000e+00,-5.493164062500000000e-01,1.525878906250000000e-02
4.695385813713073730e+01,-1.055842876434326172e+00,-7.771578788757324219e+00,5.082890033721923828e+00,-3.959655761718750000e+00,-5.493164062500000000e-01,1.525878906250000000e-02
4.696938562393188477e+01,-1.031900882720947266e+00,-7.908048152923583984e+00,5.070919036865233487e+00,-3.959655761718750000e+00,-5.493164062500000000e-01,-2.136230468750000000e-01
4.698128151893615723e+01,-9.313444495201111950e-01,-7.908048152923583984e+00,4.900930881500244141e+00,-3.616333007812500000e+00,-6.179809570312500000e-01,-2.136230468750000000e-01
4.699565005302429199e+01,-1.031900882720947266e+00,-7.867346763610839844e+00,4.900930881500244141e+00,-3.616333007812500000e+00,-5.416870117187500000e-01,-1.449584960937500000e-01
4.700898408889770508e+01,-1.070208191871642844e+00,-7.864952564239502841e+00,4.951209068298339844e+00,-3.616333007812500000e+00,-6.256103515625000000e-01,-1.449584960937500000e-01
4.702329444885253906e+01,-1.070208191871642844e+00,-7.864952564239502841e+00,4.953603267669677734e+00,-3.593444824218750000e+00,-8.010864257812500000e-01,-1.449584960937500000e-01
4.703563165664672852e+01,-9.169792532920836292e-01,-7.864952564239502841e+00,4.953603267669677734e+00,-3.593444824218750000e+00,-8.010864257812500000e-01,2.746582031250000000e-01
4.705117392539978027e+01,-9.169792532920836292e-01,-7.843404769897460938e+00,4.953603267669677734e+00,-4.707336425781250000e+00,-7.095336914062500000e-01,2.746582031250000000e-01
4.706241893768310547e+01,-9.385270476341247559e-01,-7.843404769897460938e+00,5.082890033721923828e+00,-4.707336425781250000e+00,-6.103515625000000000e-01,-2.746582031250000000e-01
4.707798385620117188e+01,-9.385270476341247559e-01,-7.953537940979003906e+00,5.082890033721923828e+00,-3.326416015625000000e+00,-7.095336914062500000e-01,-2.746582031250000000e-01
4.708974289894104004e+01,-9.217676520347596325e-01,-7.975085735321044922e+00,5.082890033721923828e+00,-3.326416015625000000e+00,-8.316040039062500000e-01,-4.577636718750000000e-02
4.710398602485656738e+01,-9.217676520347596325e-01,-7.975085735321044922e+00,5.090072631835937500e+00,-4.089355468750000000e+00,-8.316040039062500000e-01,5.493164062500000000e-01
4.711815142631530762e+01,-1.060631394386291504e+00,-7.960720539093017578e+00,5.090072631835937500e+00,-4.089355468750000000e+00,-5.493164062500000000e-01,6.866455078125000000e-01
4.713331079483032227e+01,-1.273715257644653098e+00,-7.860164165496826172e+00,5.125985622406005859e+00,-2.555847167968750000e+00,-2.365112304687500000e-01,6.866455078125000000e-01
4.714640283584594727e+01,-1.273715257644653098e+00,-7.833827972412108487e+00,5.125985622406005859e+00,-2.449035644531250000e+00,-5.493164062500000000e-01,-2.822875976562500000e-01
4.715855360031127930e+01,-9.552864432334899902e-01,-7.663839340209960938e+00,4.656722068786621094e+00,-2.449035644531250000e+00,-2.822875976562500000e-01,-2.899169921875000000e-01
4.717567801475524902e+01,-9.097966551780699573e-01,-7.663839340209960938e+00,4.656722068786621094e+00,-3.204345703125000000e+00,-7.553100585937500000e-01,-2.822875976562500000e-01
4.718634676933288574e+01,-7.852981686592102051e-01,-7.639897346496582031e+00,5.032611846923828125e+00,-3.204345703125000000e+00,-2.822875976562500000e-01,-2.899169921875000000e-01
4.720047140121459961e+01,-9.097966551780699573e-01,-7.692569732666016513e+00,5.032611846923828125e+00,-3.059387207031250000e+00,-7.553100585937500000e-01,-4.348754882812500000e-01
4.721719050407409668e+01,-1.036689281463622825e+00,-7.819462776184082031e+00,4.934449672698974609e+00,-3.044128417968750000e+00,-7.934570312500000000e-01,-4.348754882812500000e-01
4.722764658927917480e+01,-1.036689281463622825e+00,-8.113949775695799005e+00,4.934449672698974609e+00,-3.044128417968750000e+00,-7.934570312500000000e-01,-4.348754882812500000e-01
4.724250483512878418e+01,-8.810662031173706055e-01,-8.113949775695799005e+00,4.948814868927001953e+00,-3.044128417968750000e+00,-9.307861328125000000e-01,3.890991210937500000e-01
4.725737953186035156e+01,-8.810662031173706055e-01,-8.063671112060548651e+00,4.948814868927001953e+00,-2.670288085937500000e-01,-2.639770507812500000e+00,8.621215820312500000e-01
4.726917886734008789e+01,-1.273715257644653098e+00,-7.793126583099365234e+00,4.932055473327636719e+00,2.349853515625000000e+00,-3.700256347656250000e+00,8.621215820312500000e-01
4.728114223480224609e+01,-1.273715257644653098e+00,-7.793126583099365234e+00,4.395754337310791016e+00,9.605407714843750000e+00,-3.700256347656250000e+00,-1.678466796875000000e-01
4.730123019218444824e+01,-1.130063176155090332e+00,-7.709329128265380859e+00,4.932055473327636719e+00,1.097869873046875000e+01,-1.167297363281250000e+00,-5.569458007812500000e-01
4.731181502342224121e+01,-9.720458984375000000e-01,-7.517793178558349609e+00,5.236118793487548828e+00,1.318359375000000000e+01,-3.051757812500000000e-01,-2.365112304687500000e+00
4.732348561286926270e+01,-7.254431247711181641e-01,-7.371747016906737393e+00,5.566518783569335938e+00,1.318359375000000000e+01,1.365661621093750000e+00,-2.365112304687500000e+00
4.733770203590393066e+01,-7.254431247711181641e-01,-7.517793178558349609e+00,5.959167957305907315e+00,9.223937988281250000e+00,6.439208984375000000e+00,-1.899719238281250000e+00
4.735081219673156738e+01,-1.309628367424011230e+00,-8.140285491943361151e+00,5.959167957305907315e+00,5.363464355468750000e+00,4.020690917968750000e+00,-1.899719238281250000e+00
4.736494278907775879e+01,-1.374271750450134499e+00,-8.140285491943361151e+00,5.164292812347412109e+00,5.363464355468750000e+00,4.478454589843750000e+00,-2.006530761718750000e+00
4.737976050376892090e+01,-1.374271750450134499e+00,-7.965508937835692471e+00,5.164292812347412109e+00,4.974365234375000000e+00,4.020690917968750000e+00,-2.006530761718750000e+00
4.739189267158508301e+01,-8.930371999740600586e-01,-7.390900611877441406e+00,5.712564945220947266e+00,2.304077148437500000e+00,1.159667968750000000e+00,-3.433227539062500000e-01
4.740434503555297852e+01,-7.661445140838623047e-01,-7.390900611877441406e+00,5.712564945220947266e+00,-2.517700195312500000e+00,1.159667968750000000e+00,9.918212890625000000e-01
4.741972351074218750e+01,-5.913677811622620739e-01,-7.467514991760253906e+00,5.532999992370605469e+00,-2.517700195312500000e+00,1.159667968750000000e+00,2.647399902343750000e+00
4.743338036537170410e+01,-5.913677811622620739e-01,-7.467514991760253906e+00,5.532999992370605469e+00,-3.616333007812500000e+00,7.362365722656250000e+00,2.960205078125000000e+00
4.744626641273498535e+01,-7.996633648872375488e-01,-7.390900611877441406e+00,5.813121795654297763e+00,-8.880615234375000000e+00,7.888793945312500000e+00,2.647399902343750000e+00
4.746171689033508301e+01,-9.983820915222167969e-01,-7.390900611877441406e+00,5.813121795654297763e+00,-1.853179931640625000e+01,9.422302246093750000e+00,2.326965332031250000e+00
4.747364997863769531e+01,-9.983820915222167969e-01,-8.075642585754394531e+00,5.252878665924072266e+00,-1.853179931640625000e+01,9.834289550781250000e+00,1.251220703125000000e+00
4.748845458030700684e+01,-9.864110946655272327e-01,-8.075642585754394531e+00,5.252878665924072266e+00,-1.582336425781250000e+01,9.834289550781250000e+00,-3.814697265625000000e-02
4.749970936775207520e+01,-9.792284965515135609e-01,-8.231265068054200995e+00,5.269638061523437500e+00,-1.582336425781250000e+01,2.799987792968750000e+00,1.251220703125000000e+00
4.751500105857849121e+01,-9.792284965515135609e-01,-7.448361396789550781e+00,5.269638061523437500e+00,-1.772308349609375000e+01,1.762390136718750000e+00,9.994506835937500000e-01
4.753028750419616699e+01,-1.187524080276489258e+00,-7.699752330780028409e+00,5.195417404174804688e+00,-1.865386962890625000e+01,1.762390136718750000e+00,9.994506835937500000e-01
4.754283761978149414e+01,-1.187524080276489258e+00,-7.407660007476807529e+00,5.195417404174804688e+00,-1.918792724609375000e+01,1.762390136718750000e+00,-1.525878906250000000e+00
4.755727148056030273e+01,-9.097966551780699573e-01,-7.682992935180664062e+00,5.339069843292236328e+00,-1.974487304687500000e+01,2.487182617187500000e+00,-2.136230468750000000e+00
4.756906199455261230e+01,-9.097966551780699573e-01,-7.682992935180664062e+00,5.339069843292236328e+00,-2.256011962890625000e+01,2.487182617187500000e+00,-2.136230468750000000e+00
4.758421468734741211e+01,-1.149216771125793679e+00,-7.829039573669433594e+00,4.896142482757568359e+00,-2.670288085937500000e+01,4.814147949218750000e+00,3.585815429687500000e-01
4.759892392158508301e+01,-1.149216771125793679e+00,-7.829039573669433594e+00,4.896142482757568359e+00,-2.797698974609375000e+01,1.426696777343750000e+00,9.155273437500000000e-01
4.761102604866027832e+01,-7.445967197418212891e-01,-7.572859764099121094e+00,5.056553840637207031e+00,-3.456115722656250000e+01,2.586364746093750000e+00,4.920959472656250000e+00
4.762654304504394531e+01,-7.374141216278076172e-01,-7.412448406219482422e+00,5.717353343963622159e+00,-3.931427001953125000e+01,-7.476806640625000000e-01,7.965087890625000000e+00
4.763921689987182617e+01,-7.374141216278076172e-01,-6.993463039398192471e+00,5.985504150390625000e+00,-5.358123779296875000e+01,1.548767089843750000e+00,1.134490966796875000e+01
4.765382695198059082e+01,-6.081272363662719727e-01,-7.412448406219482422e+00,5.985504150390625000e+00,-6.573486328125000000e+01,1.548767089843750000e+00,1.134490966796875000e+01
4.766565203666687012e+01,-8.307879567146301270e-01,-8.243236541748048651e+00,4.390965938568115234e+00,-7.471466064453125000e+01,7.278442382812500000e+00,4.676818847656250000e+00
4.768116259574890137e+01,-8.307879567146301270e-01,-9.133879661560060370e+00,3.239354848861694336e+00,-7.471466064453125000e+01,7.743835449218750000e+00,4.676818847656250000e+00
4.769287323951721191e+01,-1.544260025024414062e+00,-8.949525833129882812e+00,3.220201253890991211e+00,-5.956268310546875000e+01,7.278442382812500000e+00,4.676818847656250000e+00
4.770716071128845215e+01,-1.544260025024414062e+00,-9.133879661560060370e+00,3.153163671493530273e+00,-4.971313476562500000e+01,7.743835449218750000e+00,-3.051757812500000000e-02
4.772291493415832520e+01,-1.094150185585021973e+00,-8.949525833129882812e+00,3.081337451934814453e+00,-3.981781005859375000e+01,4.936218261718750000e+00,-2.616882324218750000e+00
4.773474597930908203e+01,-1.094150185585021973e+00,-8.762778282165527344e+00,3.153163671493530273e+00,-3.170013427734375000e+01,4.936218261718750000e+00,-3.051757812500000000e-02
4.774898838996887207e+01,-1.094150185585021973e+00,-8.762778282165527344e+00,3.801992177963256836e+00,-2.941894531250000000e+01,4.936218261718750000e+00,-1.258850097656250000e+00
4.776343417167663574e+01,-1.168370366096496582e+00,-8.820239067077636719e+00,3.976768970489501953e+00,-2.941894531250000000e+01,3.517150878906250000e+00,2.265930175781250000e+00
4.777624869346618652e+01,-1.036689281463622825e+00,-8.820239067077636719e+00,3.976768970489501953e+00,-3.032684326171875000e+01,1.274108886718750000e+00,8.483886718750000000e+00
4.778793692588806152e+01,-1.127668976783752441e+00,-8.820239067077636719e+00,3.718195199966431108e+00,-3.032684326171875000e+01,2.593994140625000000e-01,8.483886718750000000e+00
4.780560946464538574e+01,-1.127668976783752441e+00,-8.736441612243652344e+00,3.617638826370239258e+00,-2.814483642578125000e+01,2.593994140625000000e-01,8.720397949218750000e+00
4.781659913063049316e+01,-1.570596337318420410e+00,-8.997409820556640625e+00,3.189076662063598189e+00,-2.531433105468750000e+01,2.593994140625000000e-01,7.225036621093750000e+00
4.782958030700683594e+01,-1.570596337318420410e+00,-8.750806808471679688e+00,3.189076662063598189e+00,-1.780700683593750000e+01,2.716064453125000000e+00,3.852844238281250000e+00
4.784458994865417480e+01,-1.553836822509765625e+00,-8.750806808471679688e+00,3.308786630630493164e+00,-1.572418212890625000e+01,3.204345703125000000e+00,-1.182556152343750000e+00
4.785756349563598633e+01,-1.484405040740966797e+00,-8.547300338745117188e+00,3.368641853332519531e+00,-1.572418212890625000e+01,2.716064453125000000e+00,-1.182556152343750000e+00
4.787198853492736816e+01,-7.876923680305480957e-01,-8.192957878112792969e+00,4.244919776916503906e+00,-2.025604248046875000e+01,2.975463867187500000e-01,1.541137695312500000e+00
4.788641095161437988e+01,-7.876923680305480957e-01,-8.180987358093263495e+00,4.244919776916503906e+00,-2.765655517578125000e+01,2.975463867187500000e-01,7.293701171875000000e+00
4.789968037605285645e+01,-1.338358759880065918e+00,-8.192957878112792969e+00,3.466804027557373047e+00,-3.433990478515625000e+01,-1.197814941406250000e+00,7.293701171875000000e+00
4.791158604621887207e+01,-1.786074399948119895e+00,-9.349357604980466974e+00,3.066972255706787109e+00,-3.433990478515625000e+01,-1.792907714843750000e+00,6.973266601562500000e+00
4.792856740951538086e+01,-1.786074399948119895e+00,-9.349357604980466974e+00,2.676717519760131836e+00,-3.333282470703125000e+01,-1.792907714843750000e+00,2.792358398437500000e+00
4.793934988975524902e+01,-1.345541357994079590e+00,-9.428365707397460938e+00,2.633621931076049805e+00,-2.624511718750000000e+01,-3.051757812500000000e-02,1.792907714843750000e+00
4.795382189750671387e+01,-1.182735562324524148e+00,-9.255983352661132812e+00,2.676717519760131836e+00,-1.876068115234375000e+01,-3.051757812500000000e-02,1.792907714843750000e+00
4.797054743766784668e+01,-1.182735562324524148e+00,-9.385270118713380683e+00,2.724601507186889648e+00,-1.531219482421875000e+01,-1.533508300781250000e+00,4.219055175781250000e+00
4.798121905326843262e+01,-1.276109457015991211e+00,-9.066842079162597656e+00,2.908955097198486328e+00,-1.090240478515625000e+01,-2.738952636718750000e+00,4.219055175781250000e+00
4.799518132209777832e+01,-1.276109457015991211e+00,-8.892065048217773438e+00,3.131615877151489258e+00,-1.090240478515625000e+01,-2.738952636718750000e+00,2.647399902343750000e+00
4.800944304466247559e+01,-1.177947163581847922e+00,-8.801085472106933594e+00,3.153163671493530273e+00,-1.662445068359375000e+01,6.713867187500000000e-01,6.866455078125000000e-02
4.802212309837341309e+01,-1.177947163581847922e+00,-8.801085472106933594e+00,3.349488019943237305e+00,-1.959991455078125000e+01,8.621215820312500000e-01,6.866455078125000000e-02
4.803394722938537598e+01,-1.426944136619568093e+00,-8.813055992126464844e+00,3.349488019943237305e+00,-2.247619628906250000e+01,8.621215820312500000e-01,5.722045898437500000e-01
4.804894042015075684e+01,-1.426944136619568093e+00,-9.167398452758787286e+00,2.695871114730834961e+00,-2.352142333984375000e+01,-1.213073730468750000e+00,1.823425292968750000e+00
4.806103396415710449e+01,-1.426944136619568093e+00,-9.627084732055664062e+00,2.676717519760131836e+00,-2.352142333984375000e+01,-1.480102539062500000e+00,4.821777343750000000e+00
4.807622694969177246e+01,-1.252167463302612305e+00,-9.883264541625976562e+00,2.695871114730834961e+00,-2.352142333984375000e+01,-8.712768554687500000e+00,5.897521972656250000e+00
4.809157490730285645e+01,-1.592144131660461426e+00,-9.883264541625976562e+00,2.676717519760131836e+00,-2.193450927734375000e+01,-2.984619140625000000e+01,3.241729736328125000e+01
4.810355401039123535e+01,-8.154650688171388495e+00,-9.883264541625976562e+00,1.266532659530639648e+00,-2.193450927734375000e+01,-2.984619140625000000e+01,3.241729736328125000e+01
4.811804795265197754e+01,-8.154650688171388495e+00,-8.585607528686521661e+00,1.266532659530639648e+00,3.150939941406250000e+00,2.783966064453125000e+01,-6.301879882812500000e+01
4.813004994392395020e+01,-2.130839586257934570e+00,-8.734047889709472656e+00,2.588131904602050781e+00,8.186340332031250000e+00,2.934265136718750000e+01,-6.301879882812500000e+01
4.814488077163696289e+01,2.801215887069701704e+00,-8.585607528686521661e+00,4.723759651184082031e+00,8.186340332031250000e+00,2.783966064453125000e+01,-3.978729248046875000e+01
4.815805673599243164e+01,2.801215887069701704e+00,-8.734047889709472656e+00,4.723759651184082031e+00,-3.273773193359375000e+01,5.310058593750000000e+00,1.828002929687500000e+01
4.817210221290588379e+01,-4.237737059593201239e-01,-9.287108421325683594e+00,3.306392431259155718e+00,-3.634643554687500000e+01,-2.478027343750000000e+01,5.957794189453125000e+01
4.818763566017150879e+01,-3.208230257034301758e+00,-1.001494598388672053e+01,1.424549937248229980e+00,-3.634643554687500000e+01,-2.478027343750000000e+01,5.957794189453125000e+01
4.819970488548278809e+01,-3.208230257034301758e+00,-1.018972206115722656e+01,1.424549937248229980e+00,-1.846313476562500000e+01,-8.674621582031250000e+00,1.275634765625000000e+01
4.821435546875000000e+01,-2.513911724090576172e+00,-1.001494598388672053e+01,1.429338335990905762e+00,2.059936523437500000e+00,3.356933593750000000e-01,-1.573181152343750000e+01
4.822696876525878906e+01,7.182604819536209106e-02,-8.540117263793945312e+00,3.734954595565796343e+00,2.059936523437500000e+00,9.002685546875000000e-01,-1.573181152343750000e+01
4.824126219749450684e+01,7.182604819536209106e-02,-8.540117263793945312e+00,3.909731388092041016e+00,-1.228332519531250000e+01,9.002685546875000000e-01,1.370239257812500000e+01
4.825317955017089844e+01,-1.405396342277526855e+00,-8.700529098510742188e+00,3.909731388092041016e+00,-2.799224853515625000e+01,9.002685546875000000e-01,2.527618408203125000e+01
4.826909017562866211e+01,-1.405396342277526855e+00,-9.528923034667966974e+00,2.545036315917968750e+00,-2.799224853515625000e+01,-5.462646484375000000e+00,2.527618408203125000e+01
4.828046393394470215e+01,-1.405396342277526855e+00,-9.528923034667966974e+00,2.015917778015136719e+00,-2.131652832031250000e+01,2.822875976562500000e+00,1.535797119140625000e+01
4.829566454887390137e+01,7.565677165985107422e-01,-9.639056205749511719e+00,2.015917778015136719e+00,-3.425598144531250000e+00,1.374053955078125000e+01,-7.911682128906250000e+00
4.830787420272827148e+01,-1.151610970497131126e+00,-9.392453193664550781e+00,2.451662540435791016e+00,-3.425598144531250000e+00,1.374053955078125000e+01,-7.911682128906250000e+00
4.832271885871887207e+01,-1.137245774269104004e+00,-9.208099365234376776e+00,3.356670618057251421e+00,-1.145935058593750000e+01,2.555847167968750000e+00,4.287719726562500000e+00
4.833711695671081543e+01,-1.137245774269104004e+00,-9.105149269104003906e+00,2.693476915359497070e+00,-1.269531250000000000e+01,2.555847167968750000e+00,4.287719726562500000e+00
4.835183691978454590e+01,-1.055842876434326172e+00,-9.208099365234376776e+00,2.949656486511230469e+00,-1.269531250000000000e+01,1.244354248046875000e+01,-1.182556152343750000e+00
4.836466240882873535e+01,-1.055842876434326172e+00,-9.105149269104003906e+00,2.693476915359497070e+00,-7.118225097656250000e+00,1.244354248046875000e+01,-1.182556152343750000e+00
4.837709832191467285e+01,-1.905784487724303977e+00,-9.600749015808103692e+00,2.355894327163696289e+00,-1.457214355468750000e+00,5.004882812500000000e+00,-1.182556152343750000e+00
4.839344358444213867e+01,-2.664746522903442383e+00,-8.971073150634765625e+00,-5.051765441894531250e-01,3.898620605468750000e+00,-1.686096191406250000e+01,1.892089843750000000e+00
4.840442442893981934e+01,-2.602497100830078125e+00,-8.810662269592285156e+00,-5.051765441894531250e-01,3.898620605468750000e+00,-1.686096191406250000e+01,-3.585815429687500000e+00
4.841867351531982422e+01,-2.602497100830078125e+00,-8.810662269592285156e+00,1.292868852615356445e+00,3.898620605468750000e+00,5.409240722656250000e+00,-9.475708007812500000e+00
4.843251466751098633e+01,-2.602497100830078125e+00,-8.566453933715820312e+00,1.292868852615356445e+00,6.263732910156250000e+00,5.409240722656250000e+00,-1.276397705078125000e+01
4.844563031196594238e+01,-1.781286001205444336e+00,-7.666233539581298828e+00,2.813186883926392046e+00,2.732849121093750000e+01,2.922058105468750000e+00,-1.278686523437500000e+01
4.845950293540954590e+01,-3.002328872680663618e+00,-7.666233539581298828e+00,2.585737705230712891e-01,2.946472167968750000e+01,-4.714965820312500000e+00,-1.322937011718750000e+01
4.847445988655090332e+01,-2.054224967956543413e+00,-8.918400764465332031e+00,2.487575531005859819e+00,2.946472167968750000e+01,-1.363372802734375000e+01,-1.322937011718750000e+01
4.848741865158081055e+01,-2.054224967956543413e+00,-8.918400764465332031e+00,2.487575531005859819e+00,8.224487304687500000e+00,-1.363372802734375000e+01,2.288818359375000000e-02
4.849913692474365234e+01,-7.685387134552001953e-01,-9.718064308166503906e+00,3.045424461364746094e+00,5.203247070312500000e+00,6.172180175781250000e+00,2.700805664062500000e+00
4.851636886596679688e+01,-7.685387134552001953e-01,-9.062053680419921875e+00,3.045424461364746094e+00,5.203247070312500000e+00,6.172180175781250000e+00,2.288818359375000000e-02
4.852724814414978027e+01,-1.817199110984802468e+00,-9.188945770263671875e+00,2.741360902786254883e+00,8.239746093750000000e+00,-3.601074218750000000e+00,-1.304626464843750000e+00
4.854169631004333496e+01,-2.741360902786254883e+00,-9.188945770263671875e+00,2.051830768585205078e+00,1.989746093750000000e+01,-1.020050048828125000e+01,-6.065368652343750000e+00
4.855889201164245605e+01,-1.817199110984802468e+00,-9.188945770263671875e+00,3.758896589279174805e-01,3.018951416015625000e+01,-4.516601562500000000e+00,-1.309967041015625000e+01
4.856954407691955566e+01,-1.663970112800597922e+00,-8.927977561950683594e+00,3.758896589279174805e-01,3.127288818359375000e+01,-6.103515625000000000e+00,-1.309967041015625000e+01
4.858349275588989258e+01,-1.663970112800597922e+00,-8.923189163208007812e+00,7.182605266571044922e-01,4.027557373046875000e+01,-6.103515625000000000e+00,-6.004333496093750000e+00
4.859785127639770508e+01,-1.173158764839172363e+00,-8.927977561950683594e+00,2.080561161041260210e+00,4.027557373046875000e+01,-6.103515625000000000e+00,-5.599975585937500000e+00
4.860987639427185059e+01,-2.451662540435791016e+00,-7.996633529663085938e+00,2.080561161041260210e+00,4.884338378906250000e+01,-1.860046386718750000e+01,-6.004333496093750000e+00
4.862218618392944336e+01,-2.746149301528930664e+00,-8.068459510803222656e+00,2.274491548538208008e+00,4.884338378906250000e+01,-1.860046386718750000e+01,-1.217651367187500000e+01
4.863767433166503906e+01,-2.746149301528930664e+00,-8.068459510803222656e+00,2.274491548538208008e+00,4.884338378906250000e+01,-1.860046386718750000e+01,-1.217651367187500000e+01
4.864947533607482910e+01,-3.011905670166016069e+00,-9.466672897338867188e+00,2.274491548538208008e+00,4.544830322265625000e+01,-8.666992187500000000e+00,-1.203918457031250000e+01
4.866501092910766602e+01,-3.011905670166016069e+00,-9.672574996948242188e+00,1.980004787445068359e+00,4.544830322265625000e+01,-2.647399902343750000e+00,-1.203918457031250000e+01
4.867939996719360352e+01,-5.104437828063964844e+00,-1.210747814178466797e+01,-4.836287498474121094e-01,7.913970947265625000e+01,-8.666992187500000000e+00,-3.372955322265625000e+01
4.869140291213989258e+01,-5.104437828063964844e+00,-1.648647308349609730e+01,-3.632004022598266602e+00,2.150878906250000000e+02,-2.648925781250000000e+01,-3.372955322265625000e+01
4.870562982559204102e+01,-7.422025203704833984e-01,-1.648647308349609730e+01,-3.632004022598266602e+00,2.499923706054687500e+02,-2.648925781250000000e+01,-3.471374511718750000e+01
4.871886968612670898e+01,-6.224924325942992470e-02,-7.060500621795653409e+00,4.776432514190673828e+00,2.499923706054687500e+02,-1.923370361328125000e+01,-8.926391601562500000e-01
4.873338270187377930e+01,-7.422025203704833984e-01,-2.401384353637695757e+00,1.161906051635742188e+01,1.853408813476562500e+02,-1.923370361328125000e+01,-8.926391601562500000e-01
4.874511194229125977e+01,-6.224924325942992470e-02,-2.401384353637695757e+00,1.161906051635742188e+01,1.447753906250000000e+02,-4.250335693359375000e+01,2.873992919921875000e+01
4.876043391227722168e+01,-3.471592426300048828e+00,-6.232106685638427734e+00,1.055842971801757812e+01,2.005767822265625000e+01,-8.097839355468750000e+01,6.705474853515625000e+01
4.877258682250976562e+01,5.360617637634277344e+00,-8.667010307312013495e+00,4.797980308532714844e+00,-1.435089111328125000e+01,-4.250335693359375000e+01,2.873992919921875000e+01
4.878690814971923828e+01,-4.726153850555419922e+00,-1.119289302825927557e+01,2.839523077011108398e+00,2.005767822265625000e+01,-8.097839355468750000e+01,6.705474853515625000e+01
4.880015492439270020e+01,-1.961330032348632812e+01,-1.442267036437988459e+01,-5.944802761077880859e+00,-1.435089111328125000e+01,2.609252929687500000e+01,-5.142211914062500000e+00
4.881487941741943359e+01,-1.961330032348632812e+01,-1.442267036437988459e+01,-5.944802761077880859e+00,1.167297363281250000e+01,-1.110076904296875000e+01,2.876281738281250000e+01
4.883426356315612793e+01,-1.586398029327392578e+01,-1.422634601593017578e+01,-3.327940404415130615e-01,2.563476562500000000e+00,5.396270751953125000e+01,-4.209136962890625000e+01
4.884500002861022949e+01,-1.586398029327392578e+01,-1.265814399719238459e+01,4.213795065879821777e-01,2.563476562500000000e+00,5.396270751953125000e+01,-4.209136962890625000e+01
4.885682392120361328e+01,2.422932147979736328e+00,-1.082418537139892578e+01,-3.327940404415130615e-01,2.563476562500000000e+00,5.396270751953125000e+01,-4.209136962890625000e+01
4.886746740341186523e+01,2.652775526046752930e+00,-8.250418663024902344e+00,3.213018655776977095e+00,-1.194763183593750000e+01,4.158020019531250000e+00,-2.412414550781250000e+01
4.888271999359130859e+01,2.652775526046752930e+00,-8.717288017272950995e+00,3.213018655776977095e+00,1.869201660156250000e+00,-9.071350097656250000e+00,8.842468261718750000e+00
4.889601731300354004e+01,-2.896984100341796875e+00,-8.250418663024902344e+00,3.330334424972533736e+00,-3.738403320312500000e-01,-9.071350097656250000e+00,-1.220703125000000000e+00
4.891060924530029297e+01,-2.896984100341796875e+00,-5.762843608856201172e+00,6.452373504638672763e+00,-3.738403320312500000e-01,-8.529663085937500000e+00,-1.220703125000000000e+00
4.892457699775695801e+01,2.202665507793426514e-01,-5.762843608856201172e+00,6.452373504638672763e+00,-6.958007812500000000e+00,4.119873046875000000e+00,-1.220703125000000000e+00
4.893786358833312988e+01,2.202665507793426514e-01,-7.484274387359619141e+00,5.686228752136231357e+00,-6.958007812500000000e+00,4.714965820312500000e+00,6.408691406250000000e-01
4.895239901542663574e+01,-2.717418909072875977e+00,-7.687781333923339844e+00,5.003881454467773438e+00,-3.311157226562500000e+00,4.714965820312500000e+00,7.553100585937500000e-01
4.896425127983093262e+01,-2.717418909072875977e+00,-8.042123794555664062e+00,5.003881454467773438e+00,-3.311157226562500000e+00,-4.966735839843750000e+00,7.553100585937500000e-01
4.898199105262756348e+01,-3.136404156684875488e-01,-8.042123794555664062e+00,5.003881454467773438e+00,-3.311157226562500000e+00,-4.966735839843750000e+00,-1.525878906250000000e-01
4.899261260032653809e+01,-3.136404156684875488e-01,-8.042123794555664062e+00,5.327098846435546875e+00,-3.189086914062500000e+00,-2.845764160156250000e+00,-1.525878906250000000e-01
4.900684022903442383e+01,-9.217676520347596325e-01,-7.776367187500000000e+00,4.987122058868408203e+00,-3.189086914062500000e+00,-1.068115234375000000e+00,1.403808593750000000e+00
4.902361249923706055e+01,-1.594538331031799094e+00,-7.776367187500000000e+00,4.987122058868408203e+00,-3.723144531250000000e+00,-1.068115234375000000e+00,1.403808593750000000e+00
4.903453660011291504e+01,-1.594538331031799094e+00,-7.802703380584717685e+00,4.987122058868408203e+00,-3.723144531250000000e+00,-1.068115234375000000e+00,-1.678466796875000000e+00
4.904767632484436035e+01,-1.436520963907241821e-01,-7.802703380584717685e+00,4.987122058868408203e+00,-3.723144531250000000e+00,-1.014709472656250000e+00,-1.678466796875000000e+00
4.906252074241638184e+01,-1.436520963907241821e-01,-7.941566944122313565e+00,5.078101634979248047e+00,-3.906250000000000000e+00,1.556396484375000000e+00,8.163452148437500000e-01
4.907544231414794922e+01,-1.498770236968993919e+00,-7.532158374786377841e+00,5.078101634979248047e+00,-3.906250000000000000e+00,1.556396484375000000e+00,8.163452148437500000e-01
4.908705401420593262e+01,-1.656787514686584473e+00,-7.618349552154541016e+00,5.066130638122558594e+00,-3.608703613281250000e+00,1.441955566406250000e+00,6.942749023437500000e-01
4.910443520545959473e+01,-1.656787514686584473e+00,-7.587224960327147549e+00,5.066130638122558594e+00,-2.960205078125000000e+00,-1.419067382812500000e+00,-1.174926757812500000e+00
4.911737871170043945e+01,-9.983820915222167969e-01,-7.587224960327147549e+00,5.066130638122558594e+00,-2.960205078125000000e+00,-1.419067382812500000e+00,-1.174926757812500000e+00
4.912911295890808105e+01,-9.983820915222167969e-01,-7.467514991760253906e+00,5.413290023803710938e+00,-3.562927246093750000e+00,-1.754760742187500000e-01,1.296997070312500000e+00
4.914694809913635254e+01,-1.259350061416625977e+00,-7.467514991760253906e+00,5.413290023803710938e+00,-4.478454589843750000e+00,-1.754760742187500000e-01,1.296997070312500000e+00
4.915700674057006836e+01,-1.259350061416625977e+00,-8.015787124633789062e+00,5.327098846435546875e+00,-4.478454589843750000e+00,5.340576171875000000e-02,-7.629394531250000000e-02
4.917091870307922363e+01,-1.077390789985656738e+00,-8.015787124633789062e+00,5.327098846435546875e+00,-3.562927246093750000e+00,-2.441406250000000000e-01,-7.629394531250000000e-02
4.918494367599487305e+01,-9.888052940368652344e-01,-7.893682956695557529e+00,5.449203014373778409e+00,-3.562927246093750000e+00,2.670288085937500000e-01,6.332397460937500000e-01
4.919753623008728027e+01,-9.888052940368652344e-01,-7.481880187988281250e+00,5.449203014373778409e+00,-4.455566406250000000e+00,2.670288085937500000e-01,6.942749023437500000e-01
4.921311044692993164e+01,-9.911994934082032360e-01,-7.481880187988281250e+00,4.936843872070312500e+00,-4.455566406250000000e+00,2.670288085937500000e-01,6.942749023437500000e-01
4.922722887992858887e+01,-1.223437070846557617e+00,-7.481880187988281250e+00,4.936843872070312500e+00,-2.006530761718750000e+00,6.866455078125000000e-02,3.585815429687500000e-01
4.924033999443054199e+01,-9.911994934082032360e-01,-7.309497833251952237e+00,5.109226226806641513e+00,-2.006530761718750000e+00,-1.831054687500000000e+00,3.585815429687500000e-01
4.925245165824890137e+01,-9.576806426048279919e-01,-7.309497833251952237e+00,5.109226226806641513e+00,-5.401611328125000000e+00,-2.960205078125000000e+00,3.814697265625000000e-01
4.926698780059814453e+01,-9.576806426048279919e-01,-8.202534675598144531e+00,4.946420669555664062e+00,-5.401611328125000000e+00,-1.831054687500000000e+00,8.010864257812500000e-01
4.927915358543395996e+01,-1.307234048843383789e+00,-8.202534675598144531e+00,4.946420669555664062e+00,-3.211975097656250000e+00,-2.258300781250000000e+00,8.010864257812500000e-01
4.929432630538940430e+01,-1.307234048843383789e+00,-7.359776020050048828e+00,5.518634796142578125e+00,-3.211975097656250000e+00,-1.022338867187500000e+00,-1.968383789062500000e+00
4.930948615074157715e+01,-6.871358752250671387e-01,-7.359776020050048828e+00,5.518634796142578125e+00,-3.868103027343750000e+00,9.155273437500000000e-02,-1.968383789062500000e+00
4.932144355773925781e+01,-6.871358752250671387e-01,-7.359776020050048828e+00,5.027823448181152344e+00,-3.868103027343750000e+00,9.155273437500000000e-02,1.289367675781250000e+00
4.933610463142395020e+01,-1.606509327888488770e+00,-7.486668586730957031e+00,5.027823448181152344e+00,-3.868103027343750000e+00,0.000000000000000000e+00,1.289367675781250000e+00
4.934811043739318848e+01,-1.606509327888488770e+00,-7.486668586730957031e+00,4.944026470184326172e+00,-4.249572753906250000e+00,-1.281738281250000000e+00,-2.517700195312500000e-01
4.936352276802062988e+01,-1.082179188728332297e+00,-8.145073890686035156e+00,5.389348030090332031e+00,-4.249572753906250000e+00,-1.281738281250000000e+00,-2.517700195312500000e-01
4.937837529182434082e+01,-1.082179188728332297e+00,-8.145073890686035156e+00,5.389348030090332031e+00,-4.463195800781250000e+00,-1.281738281250000000e+00,8.392333984375000000e-02
4.939026093482971191e+01,-1.412578940391540305e+00,-7.630320549011230469e+00,5.389348030090332031e+00,-4.463195800781250000e+00,4.806518554687500000e-01,9.231567382812500000e-01
4.940527701377868652e+01,-1.491587638854980469e+00,-7.630320549011230469e+00,5.056553840637207031e+00,-4.463195800781250000e+00,-1.838684082031250000e+00,1.640319824218750000e+00
4.941720104217529297e+01,-1.412578940391540305e+00,-7.829039573669433594e+00,5.056553840637207031e+00,-3.112792968750000000e+00,2.136230468750000000e-01,9.231567382812500000e-01
4.943243193626403809e+01,-6.512228250503540039e-01,-7.829039573669433594e+00,6.337451934814452237e+00,-3.112792968750000000e+00,1.907348632812500000e-01,6.103515625000000000e-02
4.944431042671203613e+01,-6.512228250503540039e-01,-7.829039573669433594e+00,6.337451934814452237e+00,-4.730224609375000000e+00,2.136230468750000000e-01,5.340576171875000000e-02
4.945872521400451660e+01,-7.781155109405517578e-01,-7.788338184356689453e+00,4.498704910278320312e+00,-4.730224609375000000e+00,1.907348632812500000e-01,5.340576171875000000e-02
4.947144031524658203e+01,-1.582567334175110085e+00,-7.788338184356689453e+00,4.498704910278320312e+00,-3.250122070312500000e+00,-1.457214355468750000e+00,5.340576171875000000e-02
4.948690938949584961e+01,-1.582567334175110085e+00,-7.596801757812500000e+00,5.746084213256835938e+00,-3.250122070312500000e+00,-1.457214355468750000e+00,-2.136230468750000000e-01
4.950101089477539062e+01,-5.267243385314941406e-01,-7.596801757812500000e+00,5.746084213256835938e+00,-3.250122070312500000e+00,-1.396179199218750000e+00,-2.136230468750000000e-01
4.951259851455688477e+01,-5.267243385314941406e-01,-7.596801757812500000e+00,4.929661273956298828e+00,-2.807617187500000000e+00,-1.396179199218750000e+00,1.121520996093750000e+00
4.952889037132263184e+01,-1.692700624465942383e+00,-8.140285491943361151e+00,4.929661273956298828e+00,-2.807617187500000000e+00,4.882812500000000000e-01,1.121520996093750000e+00
4.953955936431884766e+01,-1.692700624465942383e+00,-8.140285491943361151e+00,4.934449672698974609e+00,-5.928039550781250000e+00,-1.106262207031250000e+00,-5.950927734375000000e-01
4.955479025840759277e+01,-8.930371999740600586e-01,-8.140285491943361151e+00,5.453991413116455078e+00,-5.928039550781250000e+00,4.882812500000000000e-01,-5.950927734375000000e-01
4.956780290603637695e+01,-8.930371999740600586e-01,-7.841010570526122159e+00,5.777208805084228516e+00,-3.242492675781250000e+00,-1.106262207031250000e+00,8.239746093750000000e-01
4.958186435699462891e+01,-1.187524080276489258e+00,-7.841010570526122159e+00,5.777208805084228516e+00,-3.242492675781250000e+00,1.220703125000000000e-01,8.239746093750000000e-01
4.959724521636962891e+01,-1.187524080276489258e+00,-7.795520782470702237e+00,5.418078422546386719e+00,-3.242492675781250000e+00,-1.167297363281250000e+00,7.324218750000000000e-01
4.961023497581481934e+01,-1.122880578041076882e+00,-7.795520782470702237e+00,5.418078422546386719e+00,-2.914428710937500000e+00,1.220703125000000000e-01,1.907348632812500000e-01
4.962443828582763672e+01,-1.094150185585021973e+00,-7.125144004821777344e+00,5.418078422546386719e+00,-2.914428710937500000e+00,-7.858276367187500000e-01,6.790161132812500000e-01
4.963625073432922363e+01,-1.060631394386291504e+00,-7.125144004821777344e+00,5.298368453979492188e+00,-2.914428710937500000e+00,4.425048828125000000e-01,1.907348632812500000e-01
4.965376496315002441e+01,-1.094150185585021973e+00,-6.892906665802002841e+00,5.298368453979492188e+00,-5.119323730468750000e+00,-7.858276367187500000e-01,6.790161132812500000e-01
4.966625905036926270e+01,-1.060631394386291504e+00,-7.864952564239502841e+00,5.432443618774414062e+00,-5.149841308593750000e+00,1.312255859375000000e+00,-1.831054687500000000e-01
4.967863488197326660e+01,-1.309628367424011230e+00,-8.461108207702638495e+00,5.432443618774414062e+00,-5.149841308593750000e+00,-8.544921875000000000e-01,8.316040039062500000e-01
4.969544625282287598e+01,-1.400607943534850852e+00,-8.461108207702638495e+00,5.437232017517089844e+00,-3.204345703125000000e+00,-8.544921875000000000e-01,-2.136230468750000000e-01
4.970610380172729492e+01,-1.400607943534850852e+00,-8.070854187011718750e+00,5.437232017517089844e+00,-3.204345703125000000e+00,-1.091003417968750000e+00,-1.220703125000000000e-01
4.972023582458496094e+01,-4.237737059593201239e-01,-8.070854187011718750e+00,5.437232017517089844e+00,-3.265380859375000000e+00,-1.091003417968750000e+00,-1.220703125000000000e-01
4.973433399200439453e+01,-4.237737059593201239e-01,-8.070854187011718750e+00,5.588066577911376953e+00,-3.265380859375000000e+00,2.059936523437500000e-01,1.045227050781250000e+00
4.974717617034912109e+01,-1.074996590614318848e+00,-7.762001991271972656e+00,5.566518783569335938e+00,-3.265380859375000000e+00,4.196166992187500000e-01,1.045227050781250000e+00
4.976241087913513184e+01,-1.240196466445922852e+00,-7.431602001190185547e+00,5.566518783569335938e+00,-5.302429199218750000e+00,4.196166992187500000e-01,-1.220703125000000000e-01
4.977676510810852051e+01,-1.240196466445922852e+00,-7.431602001190185547e+00,5.446808815002441406e+00,-5.302429199218750000e+00,-1.953125000000000000e+00,-1.220703125000000000e-01
4.978892898559570312e+01,-6.464344263076782227e-01,-7.431602001190185547e+00,5.446808815002441406e+00,-4.219055175781250000e+00,-1.953125000000000000e+00,1.289367675781250000e+00
4.980127620697021484e+01,-6.464344263076782227e-01,-7.721300125122070312e+00,5.446808815002441406e+00,-4.219055175781250000e+00,6.484985351562500000e-01,1.289367675781250000e+00
4.981848597526550293e+01,-1.170764565467834473e+00,-8.178592681884767401e+00,5.425261020660400391e+00,-4.219055175781250000e+00,1.243591308593750000e+00,3.204345703125000000e-01
4.982921338081359863e+01,-1.352723956108093262e+00,-8.178592681884767401e+00,5.425261020660400391e+00,-2.716064453125000000e+00,1.243591308593750000e+00,3.204345703125000000e-01
4.984349012374877930e+01,-1.352723956108093262e+00,-7.795520782470702237e+00,5.693411350250244141e+00,-2.716064453125000000e+00,-1.312255859375000000e+00,3.204345703125000000e-01
4.986080646514892578e+01,-8.882488012313842773e-01,-7.795520782470702237e+00,5.693411350250244141e+00,-3.379821777343750000e+00,-1.411437988281250000e+00,1.487731933593750000e+00
4.987133049964904785e+01,-8.882488012313842773e-01,-7.795520782470702237e+00,5.693411350250244141e+00,-3.379821777343750000e+00,-1.312255859375000000e+00,8.392333984375000000e-02
4.988559293746948242e+01,-1.091755986213684082e+00,-7.699752330780028409e+00,5.781997203826903409e+00,-3.379821777343750000e+00,-2.288818359375000000e-01,8.392333984375000000e-02
4.989765620231628418e+01,-1.091755986213684082e+00,-7.699752330780028409e+00,5.781997203826903409e+00,-4.264831542968750000e+00,-6.103515625000000000e-02,-1.205444335937500000e+00
4.991264843940734863e+01,-1.134851574897765891e+00,-7.663839340209960938e+00,5.070919036865233487e+00,-4.264831542968750000e+00,-6.103515625000000000e-02,-1.205444335937500000e+00
4.992533326148986816e+01,-1.496376037597656250e+00,-7.663839340209960938e+00,5.070919036865233487e+00,-2.861022949218750000e+00,-9.078979492187500000e-01,6.332397460937500000e-01
4.994020700454711914e+01,-1.496376037597656250e+00,-6.904877662658691406e+00,5.650315761566162109e+00,-2.861022949218750000e+00,-9.078979492187500000e-01,6.332397460937500000e-01
4.995171642303466797e+01,-8.092401623725891113e-01,-6.904877662658691406e+00,5.650315761566162109e+00,-3.868103027343750000e+00,-8.544921875000000000e-01,6.332397460937500000e-01
4.996747303009033203e+01,-8.092401623725891113e-01,-7.812280178070067471e+00,5.525817394256591797e+00,-3.868103027343750000e+00,-8.087158203125000000e-01,4.119873046875000000e-01
4.997884106636047363e+01,-1.225831270217895508e+00,-7.812280178070067471e+00,5.525817394256591797e+00,-3.868103027343750000e+00,-8.544921875000000000e-01,4.119873046875000000e-01
4.999386239051818848e+01,-1.225831270217895508e+00,-7.812280178070067471e+00,5.525817394256591797e+00,-4.920959472656250000e+00,-1.235961914062500000e+00,-6.256103515625000000e-01
5.000820899009704590e+01,-7.972691655158996582e-01,-8.039729118347167969e+00,5.207388401031494141e+00,-4.920959472656250000e+00,-1.235961914062500000e+00,-6.256103515625000000e-01
5.002048230171203613e+01,-7.972691655158996582e-01,-8.039729118347167969e+00,5.207388401031494141e+00,-1.762390136718750000e+00,2.975463867187500000e-01,1.060485839843750000e+00
5.003569912910461426e+01,-1.154005169868469238e+00,-7.333439826965332031e+00,5.746084213256835938e+00,-1.762390136718750000e+00,2.975463867187500000e-01,1.060485839843750000e+00
5.004772853851318359e+01,-1.154005169868469238e+00,-7.333439826965332031e+00,5.746084213256835938e+00,-5.508422851562500000e+00,9.918212890625000000e-02,-2.670288085937500000e-01
5.006185245513916016e+01,-7.996633648872375488e-01,-7.704540729522705078e+00,5.595249176025391513e+00,-5.508422851562500000e+00,9.918212890625000000e-02,-2.670288085937500000e-01
5.007739639282226562e+01,-7.996633648872375488e-01,-7.704540729522705078e+00,5.595249176025391513e+00,-2.868652343750000000e+00,1.472473144531250000e+00,6.713867187500000000e-01
5.008974504470825195e+01,-1.177947163581847922e+00,-7.721300125122070312e+00,5.643133163452147549e+00,-2.868652343750000000e+00,1.472473144531250000e+00,6.713867187500000000e-01
5.010411453247070312e+01,-1.177947163581847922e+00,-7.721300125122070312e+00,5.643133163452147549e+00,-3.273010253906250000e+00,1.754760742187500000e-01,-1.449584960937500000e-01
5.011696004867553711e+01,-9.720458984375000000e-01,-8.056488990783691406e+00,4.802768707275391513e+00,-3.273010253906250000e+00,-5.340576171875000000e-02,-1.449584960937500000e-01
5.013153600692749023e+01,-9.720458984375000000e-01,-8.056488990783691406e+00,4.802768707275391513e+00,-3.273010253906250000e+00,-5.340576171875000000e-02,-1.449584960937500000e-01
5.014369344711303711e+01,-1.084573388099670410e+00,-7.429207801818847656e+00,5.391742229461669922e+00,-4.104614257812500000e+00,-5.340576171875000000e-02,2.441406250000000000e-01
5.015895605087280273e+01,-1.084573388099670410e+00,-7.429207801818847656e+00,5.391742229461669922e+00,-5.050659179687500000e+00,-9.155273437500000000e-02,2.441406250000000000e-01
5.017065882682800293e+01,-9.720458984375000000e-01,-7.295132637023925781e+00,5.391742229461669922e+00,-5.050659179687500000e+00,-9.155273437500000000e-02,1.243591308593750000e+00
5.018519902229309082e+01,-9.720458984375000000e-01,-7.867346763610839844e+00,5.310339450836181641e+00,-4.135131835937500000e+00,1.190185546875000000e+00,1.243591308593750000e+00
5.020102334022521973e+01,-1.369483351707458496e+00,-7.905653953552246094e+00,5.281609058380126953e+00,-3.433227539062500000e+00,1.190185546875000000e+00,-3.585815429687500000e-01
5.021202683448791504e+01,-1.369483351707458496e+00,-7.917624950408934659e+00,5.066130638122558594e+00,-3.143310546875000000e+00,-1.312255859375000000e+00,-3.585815429687500000e-01
5.022746944427490234e+01,-1.355118155479431152e+00,-7.917624950408934659e+00,5.066130638122558594e+00,-3.143310546875000000e+00,-1.312255859375000000e+00,1.373291015625000000e-01
5.024008607864379883e+01,-6.248866319656372070e-01,-7.659050941467285156e+00,5.561730384826660156e+00,-3.425598144531250000e+00,-1.281738281250000000e+00,1.373291015625000000e-01
5.025407052040100098e+01,-6.248866319656372070e-01,-7.659050941467285156e+00,5.561730384826660156e+00,-3.784179687500000000e+00,2.441406250000000000e-01,8.392333984375000000e-02
5.026564002037048340e+01,-1.515529632568359375e+00,-7.876923561096191406e+00,5.561730384826660156e+00,-3.578186035156250000e+00,2.441406250000000000e-01,2.288818359375000000e-02
5.028377985954284668e+01,-1.515529632568359375e+00,-7.876923561096191406e+00,5.602431774139403409e+00,-3.578186035156250000e+00,-7.400512695312500000e-01,2.288818359375000000e-02
5.029612088203430176e+01,-7.924807667732238770e-01,-7.632714748382567471e+00,5.602431774139403409e+00,-3.578186035156250000e+00,-7.400512695312500000e-01,6.713867187500000000e-01
5.030823683738708496e+01,-7.924807667732238770e-01,-7.596801757812500000e+00,5.592854976654052734e+00,-4.684448242187500000e+00,7.400512695312500000e-01,6.942749023437500000e-01
5.032571649551391602e+01,-9.696516990661619984e-01,-7.632714748382567471e+00,5.513846397399902344e+00,-4.684448242187500000e+00,7.934570312500000000e-01,1.220703125000000000e+00
5.033667254447937012e+01,-1.254561662673950195e+00,-7.797914981842041016e+00,5.556941986083983487e+00,-4.554748535156250000e+00,7.400512695312500000e-01,1.220703125000000000e+00
5.035019540786743164e+01,-1.254561662673950195e+00,-8.312667846679687500e+00,5.528211593627929688e+00,-3.829956054687500000e+00,-5.035400390625000000e-01,-2.288818359375000000e-02
5.036496496200561523e+01,-1.096544384956360085e+00,-8.169015884399414062e+00,5.528211593627929688e+00,-3.906250000000000000e+00,-7.400512695312500000e-01,-2.288818359375000000e-02
5.037731862068176270e+01,-1.096544384956360085e+00,-8.169015884399414062e+00,5.513846397399902344e+00,-3.089904785156250000e+00,-7.400512695312500000e-01,7.934570312500000000e-01
5.038926005363464355e+01,-1.142034173011779785e+00,-7.639897346496582031e+00,5.451597213745117188e+00,-2.731323242187500000e+00,-7.400512695312500000e-01,7.934570312500000000e-01
5.040643954277038574e+01,-1.142034173011779785e+00,-7.469909191131592685e+00,5.420472621917724609e+00,-2.731323242187500000e+00,-8.926391601562500000e-01,-4.653930664062500000e-01
5.041738677024841309e+01,-6.344634294509887695e-01,-7.422025203704833984e+00,5.221753597259521484e+00,-3.974914550781250000e+00,-8.926391601562500000e-01,-4.653930664062500000e-01
5.043193054199218750e+01,-6.344634294509887695e-01,-7.469909191131592685e+00,5.209782600402832031e+00,-4.043579101562500000e+00,-2.746582031250000000e-01,7.553100585937500000e-01
5.044863367080688477e+01,-1.400607943534850852e+00,-7.462726593017577237e+00,5.209782600402832031e+00,-4.096984863281250000e+00,-1.220703125000000000e-01,8.010864257812500000e-01
5.045947813987731934e+01,-1.400607943534850852e+00,-7.563282966613769531e+00,5.209782600402832031e+00,-4.096984863281250000e+00,-1.220703125000000000e-01,8.010864257812500000e-01
5.047246384620666504e+01,-1.273715257644653098e+00,-7.999027729034423828e+00,5.140350818634033203e+00,-4.089355468750000000e+00,-5.722045898437500000e-01,7.553100585937500000e-01
5.048764419555664062e+01,-1.122880578041076882e+00,-7.999027729034423828e+00,5.140350818634033203e+00,-3.395080566406250000e+00,-5.722045898437500000e-01,4.348754882812500000e-01
5.050111341476440430e+01,-1.122880578041076882e+00,-8.058882713317871094e+00,5.406107425689697266e+00,-3.395080566406250000e+00,-2.212524414062500000e-01,4.348754882812500000e-01
5.051231884956359863e+01,-1.161187767982482910e+00,-8.018181800842285156e+00,5.406107425689697266e+00,-3.395080566406250000e+00,-2.212524414062500000e-01,2.899169921875000000e-01
5.052663111686706543e+01,-1.161187767982482910e+00,-8.018181800842285156e+00,5.406107425689697266e+00,-2.456665039062500000e+00,-4.577636718750000000e-01,3.051757812500000000e-02
5.053892588615417480e+01,-8.906430006027221680e-01,-7.467514991760253906e+00,5.609614372253417969e+00,-2.456665039062500000e+00,-4.577636718750000000e-01,3.051757812500000000e-02
5.055495381355285645e+01,-8.834604024887084961e-01,-7.467514991760253906e+00,5.609614372253417969e+00,-3.814697265625000000e+00,-2.593994140625000000e-01,-1.449584960937500000e-01
5.056939101219177246e+01,-8.834604024887084961e-01,-7.769184589385986328e+00,5.547365188598632812e+00,-3.814697265625000000e+00,3.509521484375000000e-01,-1.449584960937500000e-01
5.058928203582763672e+01,-1.364694952964782715e+00,-7.769184589385986328e+00,5.547365188598632812e+00,-3.425598144531250000e+00,-2.593994140625000000e-01,-1.754760742187500000e-01
5.060008955001831055e+01,-1.364694952964782715e+00,-7.769184589385986328e+00,5.547365188598632812e+00,-3.425598144531250000e+00,-3.890991210937500000e-01,-1.525878906250000000e-02
5.061075282096862793e+01,-7.637503147125244141e-01,-7.862558364868164062e+00,5.336675643920898438e+00,-3.425598144531250000e+00,-3.890991210937500000e-01,-1.525878906250000000e-02
5.062325525283813477e+01,-7.637503147125244141e-01,-7.862558364868164062e+00,5.336675643920898438e+00,-3.341674804687500000e+00,-1.220703125000000000e-01,-1.525878906250000000e-02
5.063483405113220215e+01,-1.242590665817260742e+00,-7.661445140838622159e+00,5.406107425689697266e+00,-3.341674804687500000e+00,-1.220703125000000000e-01,-2.136230468750000000e-01
5.065003323554992676e+01,-1.242590665817260742e+00,-7.661445140838622159e+00,5.406107425689697266e+00,-3.341674804687500000e+00,-3.433227539062500000e-01,-2.136230468750000000e-01
5.066414046287536621e+01,-1.084573388099670410e+00,-7.709329128265380859e+00,5.406107425689697266e+00,-3.135681152343750000e+00,-3.433227539062500000e-01,2.136230468750000000e-01
5.067764663696289062e+01,-9.983820915222167969e-01,-7.709329128265380859e+00,5.449203014373778409e+00,-3.135681152343750000e+00,-2.670288085937500000e-01,7.781982421875000000e-01
5.069150280952453613e+01,-9.983820915222167969e-01,-7.709329128265380859e+00,5.449203014373778409e+00,-3.875732421875000000e+00,1.678466796875000000e-01,7.781982421875000000e-01
5.070484948158264160e+01,-1.149216771125793679e+00,-7.900865554809570312e+00,5.200205802917480469e+00,-3.875732421875000000e+00,1.678466796875000000e-01,1.373291015625000000e-01
5.071894478797912598e+01,-1.201889276504516602e+00,-7.900865554809570312e+00,5.200205802917480469e+00,-3.150939941406250000e+00,-3.051757812500000000e-01,1.373291015625000000e-01
5.073066949844360352e+01,-1.201889276504516602e+00,-7.532158374786377841e+00,5.425261020660400391e+00,-3.150939941406250000e+00,-3.051757812500000000e-01,3.128051757812500000e-01
5.074710273742675781e+01,-1.036689281463622825e+00,-7.532158374786377841e+00,5.425261020660400391e+00,-3.883361816406250000e+00,-1.907348632812500000e-01,4.577636718750000000e-01
5.076096630096435547e+01,-1.036689281463622825e+00,-7.790732383728027344e+00,5.248090267181396484e+00,-3.883361816406250000e+00,-1.907348632812500000e-01,5.187988281250000000e-01
5.077282166481018066e+01,-1.122880578041076882e+00,-7.790732383728027344e+00,5.248090267181396484e+00,-3.540039062500000000e+00,-1.907348632812500000e-01,5.187988281250000000e-01
5.078892636299133301e+01,-1.122880578041076882e+00,-7.790732383728027344e+00,5.267243862152099609e+00,-3.540039062500000000e+00,-2.670288085937500000e-01,5.187988281250000000e-01
5.079967856407165527e+01,-1.098938584327697754e+00,-7.848193168640137607e+00,5.267243862152099609e+00,-3.540039062500000000e+00,4.882812500000000000e-01,5.187988281250000000e-01
5.081526231765747070e+01,-1.098938584327697754e+00,-7.848193168640137607e+00,5.267243862152099609e+00,-3.341674804687500000e+00,-2.670288085937500000e-01,5.187988281250000000e-01
5.082949638366699219e+01,-1.103726983070373535e+00,-7.637503147125244141e+00,5.367800235748291016e+00,-3.341674804687500000e+00,1.907348632812500000e-01,-1.220703125000000000e-01
5.084298682212829590e+01,-1.103726983070373535e+00,-7.623137950897217685e+00,5.367800235748291016e+00,-3.341674804687500000e+00,-6.866455078125000000e-01,-1.220703125000000000e-01
5.085400795936584473e+01,-1.103726983070373535e+00,-7.589619159698486328e+00,5.183446407318115234e+00,-3.555297851562500000e+00,-4.730224609375000000e-01,9.384155273437500000e-01
5.087211847305297852e+01,-1.144428372383117676e+00,-7.433996200561522549e+00,5.037400245666503906e+00,-3.555297851562500000e+00,-8.926391601562500000e-01,9.384155273437500000e-01
5.088423585891723633e+01,-1.144428372383117676e+00,-7.433996200561522549e+00,5.037400245666503906e+00,-4.096984863281250000e+00,-5.950927734375000000e-01,9.384155273437500000e-01
5.089595985412597656e+01,-9.433154463768004261e-01,-7.742848396301268643e+00,5.346252441406250000e+00,-4.379272460937500000e+00,-5.950927734375000000e-01,7.247924804687500000e-01
5.091362762451171875e+01,-9.433154463768004261e-01,-8.015787124633789062e+00,5.346252441406250000e+00,-4.379272460937500000e+00,-1.602172851562500000e-01,7.247924804687500000e-01
5.092613601684570312e+01,-1.572990536689758301e+00,-8.015787124633789062e+00,5.341464042663574219e+00,-3.227233886718750000e+00,-1.602172851562500000e-01,1.983642578125000000e-01
5.093794870376586914e+01,-1.572990536689758301e+00,-7.790732383728027344e+00,5.305551052093505859e+00,-3.189086914062500000e+00,-1.533508300781250000e+00,-1.296997070312500000e-01
5.095566797256469727e+01,-8.283937573432922363e-01,-7.776367187500000000e+00,5.305551052093505859e+00,-3.189086914062500000e+00,-1.533508300781250000e+00,-2.899169921875000000e-01
5.096714234352111816e+01,-8.283937573432922363e-01,-7.733271598815917969e+00,5.260061264038085938e+00,-3.303527832031250000e+00,-1.510620117187500000e+00,-1.296997070312500000e-01
5.098015594482421875e+01,-1.199495077133178711e+00,-7.457938194274902344e+00,5.377377033233643466e+00,-4.325866699218750000e+00,4.043579101562500000e-01,-3.738403320312500000e-01
5.099483585357666016e+01,-1.199495077133178711e+00,-7.457938194274902344e+00,5.377377033233643466e+00,-4.325866699218750000e+00,-1.312255859375000000e+00,5.569458007812500000e-01
5.100672793388366699e+01,-9.911994934082032360e-01,-7.778761386871337891e+00,5.377377033233643466e+00,-3.646850585937500000e+00,4.043579101562500000e-01,3.128051757812500000e-01
5.101867604255676270e+01,-9.911994934082032360e-01,-7.814674377441406250e+00,5.284003257751464844e+00,-3.646850585937500000e+00,-1.152038574218750000e+00,5.569458007812500000e-01
5.103613138198852539e+01,-1.312022566795349121e+00,-7.814674377441406250e+00,5.284003257751464844e+00,-3.875732421875000000e+00,-4.577636718750000000e-02,3.128051757812500000e-01
5.104868412017822266e+01,-1.312022566795349121e+00,-7.814674377441406250e+00,5.300762653350830078e+00,-3.875732421875000000e+00,-1.152038574218750000e+00,4.577636718750000000e-02
5.106182980537414551e+01,-1.165976166725158691e+00,-7.699752330780028409e+00,5.300762653350830078e+00,-3.189086914062500000e+00,-1.159667968750000000e+00,3.814697265625000000e-02
5.107851886749267578e+01,-7.876923680305480957e-01,-7.697358131408691406e+00,5.245696067810058594e+00,-3.189086914062500000e+00,-1.159667968750000000e+00,3.814697265625000000e-02
5.108931231498718262e+01,-7.876923680305480957e-01,-7.697358131408691406e+00,5.240907669067382812e+00,-3.509521484375000000e+00,-1.907348632812500000e-01,2.136230468750000000e-01
5.110357928276062012e+01,-1.158793568611145020e+00,-7.699752330780028409e+00,5.245696067810058594e+00,-3.562927246093750000e+00,-1.907348632812500000e-01,3.280639648437500000e-01
5.111849355697631836e+01,-1.158793568611145020e+00,-7.699752330780028409e+00,5.408501625061035156e+00,-3.562927246093750000e+00,-4.806518554687500000e-01,2.136230468750000000e-01
5.113002181053161621e+01,-1.158793568611145020e+00,-7.699752330780028409e+00,5.408501625061035156e+00,-3.562927246093750000e+00,-4.806518554687500000e-01,3.051757812500000000e-02
5.114542818069458008e+01,-1.096544384956360085e+00,-7.671021938323974609e+00,5.274426460266113281e+00,-3.227233886718750000e+00,-5.035400390625000000e-01,3.051757812500000000e-02
5.115749621391296387e+01,-1.096544384956360085e+00,-7.651868343353270596e+00,4.967968463897705078e+00,-3.089904785156250000e+00,-4.806518554687500000e-01,3.051757812500000000e-02
5.117214274406433105e+01,-1.096544384956360085e+00,-7.651868343353270596e+00,4.967968463897705078e+00,-3.089904785156250000e+00,-6.484985351562500000e-01,-2.365112304687500000e-01
5.118767404556274414e+01,-9.624690413475035511e-01,-7.651868343353270596e+00,5.382165431976318359e+00,-3.417968750000000000e+00,-3.738403320312500000e-01,-2.365112304687500000e-01
5.119964909553527832e+01,-9.624690413475035511e-01,-7.666233539581298828e+00,5.382165431976318359e+00,-3.547668457031250000e+00,-9.613037109375000000e-01,2.212524414062500000e-01
5.121375632286071777e+01,-1.156399369239807129e+00,-7.666233539581298828e+00,5.295974254608153409e+00,-3.730773925781250000e+00,1.068115234375000000e-01,3.662109375000000000e-01
5.122652864456176758e+01,-1.194706678390502930e+00,-7.783549785614013672e+00,5.295974254608153409e+00,-3.616333007812500000e+00,-9.613037109375000000e-01,3.814697265625000000e-01
5.124081802368164062e+01,-1.194706678390502930e+00,-7.797914981842041016e+00,5.322310447692871094e+00,-3.616333007812500000e+00,2.746582031250000000e-01,3.662109375000000000e-01
5.125283288955688477e+01,-1.060631394386291504e+00,-7.783549785614013672e+00,5.391742229461669922e+00,-3.616333007812500000e+00,-6.103515625000000000e-01,2.899169921875000000e-01
