# elapsed time, f1_acc_x, f1_acc_y, f1_acc_z, f1_gyro_x, f1_gyro_y, f1_gyro_z
6.129245519638061523e+01,-4.240131378173828125e+00,-2.229001760482788086e+00,-9.332597732543943536e+00,-3.684997558593750000e+00,-3.128051757812500000e-01,3.890991210937500000e-01
6.130741047859191895e+01,-4.240131378173828125e+00,-2.200271368026733398e+00,-9.366116523742675781e+00,-3.593444824218750000e+00,-3.128051757812500000e-01,3.051757812500000000e-01
6.131969642639160156e+01,-4.264073371887207031e+00,-2.250549554824829102e+00,-9.327809333801269531e+00,-3.524780273437500000e+00,-3.967285156250000000e-01,3.051757812500000000e-01
6.133501648902893066e+01,-4.268861770629883701e+00,-2.233790159225463867e+00,-9.373299598693847656e+00,-3.524780273437500000e+00,-3.967285156250000000e-01,3.662109375000000000e-01
6.134667110443115234e+01,-4.280832767486571377e+00,-2.257732152938842773e+00,-9.402029991149902344e+00,-3.593444824218750000e+00,-4.196166992187500000e-01,4.653930664062500000e-01
6.136153507232666016e+01,-4.268861770629883701e+00,-2.243366956710815430e+00,-9.402029991149902344e+00,-3.692626953125000000e+00,-2.822875976562500000e-01,3.890991210937500000e-01
6.137319517135620117e+01,-4.280832767486571377e+00,-2.243366956710815430e+00,-9.402029991149902344e+00,-3.784179687500000000e+00,-3.585815429687500000e-01,3.890991210937500000e-01
6.138849902153015137e+01,-4.299986362457274502e+00,-2.205059766769409180e+00,-9.330204010009765625e+00,-3.692626953125000000e+00,-3.585815429687500000e-01,3.738403320312500000e-01
6.140341138839721680e+01,-4.299986362457274502e+00,-2.205059766769409180e+00,-9.406818389892578125e+00,-3.669738769531250000e+00,-4.577636718750000000e-01,3.738403320312500000e-01
6.141621065139770508e+01,-4.271255970001221591e+00,-2.209848165512084961e+00,-9.332597732543943536e+00,-3.669738769531250000e+00,-4.577636718750000000e-01,3.738403320312500000e-01
6.143133831024169922e+01,-4.271255970001221591e+00,-2.286462545394897017e+00,-9.397241592407226562e+00,-3.669738769531250000e+00,-3.890991210937500000e-01,3.967285156250000000e-01
6.144269466400146484e+01,-4.280832767486571377e+00,-2.286462545394897017e+00,-9.332597732543943536e+00,-3.669738769531250000e+00,-3.585815429687500000e-01,3.356933593750000000e-01
6.145818281173706055e+01,-4.280832767486571377e+00,-2.286462545394897017e+00,-9.337386131286619317e+00,-3.669738769531250000e+00,-3.585815429687500000e-01,4.882812500000000000e-01
6.147294378280639648e+01,-4.242525577545166016e+00,-2.245761156082153320e+00,-9.315838813781738281e+00,-3.776550292968750000e+00,-3.890991210937500000e-01,4.882812500000000000e-01
6.148452663421630859e+01,-4.242525577545166016e+00,-2.245761156082153320e+00,-9.315838813781738281e+00,-3.776550292968750000e+00,-3.890991210937500000e-01,4.882812500000000000e-01
6.149988913536071777e+01,-4.256890773773193359e+00,-2.269703149795531782e+00,-9.308655738830566406e+00,-3.723144531250000000e+00,-2.822875976562500000e-01,5.722045898437500000e-01
6.151192736625671387e+01,-4.295197963714600498e+00,-2.269703149795531782e+00,-9.308655738830566406e+00,-3.646850585937500000e+00,-2.822875976562500000e-01,4.119873046875000000e-01
6.152703380584716797e+01,-4.295197963714600498e+00,-2.229001760482788086e+00,-9.356539726257324219e+00,-3.601074218750000000e+00,-4.653930664062500000e-01,4.119873046875000000e-01
6.153949069976806641e+01,-4.240131378173828125e+00,-2.229001760482788086e+00,-9.356539726257324219e+00,-3.601074218750000000e+00,-5.416870117187500000e-01,4.119873046875000000e-01
6.155620408058166504e+01,-4.240131378173828125e+00,-2.257732152938842773e+00,-9.303867340087890625e+00,-3.570556640625000000e+00,-5.416870117187500000e-01,3.814697265625000000e-01
6.156862831115722656e+01,-4.271255970001221591e+00,-2.257732152938842773e+00,-9.303867340087890625e+00,-3.509521484375000000e+00,-5.569458007812500000e-01,2.975463867187500000e-01
6.158039808273315430e+01,-4.283226966857910156e+00,-2.205059766769409180e+00,-9.342174530029296875e+00,-3.456115722656250000e+00,-5.569458007812500000e-01,2.975463867187500000e-01
6.159826922416687012e+01,-4.283226966857910156e+00,-2.205059766769409180e+00,-9.342174530029296875e+00,-3.456115722656250000e+00,-5.569458007812500000e-01,2.975463867187500000e-01
6.160907030105590820e+01,-4.283226966857910156e+00,-2.219424962997436523e+00,-9.332597732543943536e+00,-3.593444824218750000e+00,-3.662109375000000000e-01,3.051757812500000000e-01
6.162322092056274414e+01,-4.252102375030518466e+00,-2.257732152938842773e+00,-9.315838813781738281e+00,-3.593444824218750000e+00,-3.433227539062500000e-01,1.296997070312500000e-01
6.164023566246032715e+01,-4.297592163085937500e+00,-2.257732152938842773e+00,-9.303867340087890625e+00,-3.578186035156250000e+00,-3.433227539062500000e-01,1.831054687500000000e-01
6.165083122253417969e+01,-4.280832767486571377e+00,-2.257732152938842773e+00,-9.279925346374511719e+00,-3.555297851562500000e+00,-3.433227539062500000e-01,1.831054687500000000e-01
6.166468620300292969e+01,-4.280832767486571377e+00,-2.245761156082153320e+00,-9.303867340087890625e+00,-3.578186035156250000e+00,-4.806518554687500000e-01,3.738403320312500000e-01
6.167910218238830566e+01,-4.280832767486571377e+00,-2.257732152938842773e+00,-9.315838813781738281e+00,-3.601074218750000000e+00,-4.806518554687500000e-01,3.890991210937500000e-01
6.169214320182800293e+01,-4.283226966857910156e+00,-2.245761156082153320e+00,-9.325415611267089844e+00,-3.601074218750000000e+00,-4.577636718750000000e-01,3.890991210937500000e-01
6.170425724983215332e+01,-4.295197963714600498e+00,-2.257732152938842773e+00,-9.315838813781738281e+00,-3.601074218750000000e+00,-3.738403320312500000e-01,3.890991210937500000e-01
6.172127270698547363e+01,-4.297592163085937500e+00,-2.166752576828003374e+00,-9.303867340087890625e+00,-3.501892089843750000e+00,-3.280639648437500000e-01,2.288818359375000000e-01
6.173470807075500488e+01,-4.295197963714600498e+00,-2.274491548538208008e+00,-9.303867340087890625e+00,-3.799438476562500000e+00,-3.280639648437500000e-01,4.425048828125000000e-01
6.174529719352722168e+01,-4.297592163085937500e+00,-2.217030763626098189e+00,-9.399635314941406250e+00,-3.845214843750000000e+00,-7.629394531250000000e-01,2.975463867187500000e-01
6.176313209533691406e+01,-4.244919776916503906e+00,-2.217030763626098189e+00,-9.399635314941406250e+00,-3.898620605468750000e+00,-7.629394531250000000e-01,4.730224609375000000e-01
6.177369689941406250e+01,-4.278438568115233487e+00,-2.209848165512084961e+00,-9.411606788635253906e+00,-3.898620605468750000e+00,-7.247924804687500000e-01,2.975463867187500000e-01
6.178740262985229492e+01,-4.278438568115233487e+00,-2.193088769912720171e+00,-9.390058517456056464e+00,-4.150390625000000000e+00,-3.814697265625000000e-01,7.247924804687500000e-01
6.180236935615539551e+01,-4.288015365600586826e+00,-2.193088769912720171e+00,-9.390058517456056464e+00,-3.746032714843750000e+00,3.814697265625000000e-02,7.247924804687500000e-01
6.181503033638000488e+01,-4.288015365600586826e+00,-2.183511972427368164e+00,-9.294290542602539062e+00,-3.036499023437500000e+00,-3.814697265625000000e-01,7.247924804687500000e-01
6.182674908638000488e+01,-4.259284973144531250e+00,-2.214636564254760742e+00,-9.294290542602539062e+00,-3.036499023437500000e+00,-3.890991210937500000e-01,8.010864257812500000e-01
6.184196472167968750e+01,-4.218583106994628906e+00,-2.303221940994262695e+00,-9.327809333801269531e+00,-3.730773925781250000e+00,-3.890991210937500000e-01,6.179809570312500000e-01
6.185726118087768555e+01,-4.218583106994628906e+00,-2.303221940994262695e+00,-9.378087997436523438e+00,-3.883361816406250000e+00,-4.425048828125000000e-01,1.174926757812500000e+00
6.186843991279602051e+01,-4.326322555541991299e+00,-2.224213361740112305e+00,-9.378087997436523438e+00,-3.898620605468750000e+00,-2.517700195312500000e-01,6.179809570312500000e-01
6.188437032699584961e+01,-4.328716754913330078e+00,-2.195482969284057617e+00,-9.378087997436523438e+00,-3.959655761718750000e+00,-4.272460937500000000e-01,7.019042968750000000e-01
6.189604067802429199e+01,-4.328716754913330078e+00,-2.195482969284057617e+00,-9.291896820068359375e+00,-3.959655761718750000e+00,3.738403320312500000e-01,-7.629394531250000000e-02
6.191118669509887695e+01,-4.395754337310791016e+00,-2.195482969284057617e+00,-9.270348548889160156e+00,-4.089355468750000000e+00,-4.272460937500000000e-01,7.019042968750000000e-01
6.192315435409545898e+01,-4.395754337310791016e+00,-1.999158382415771706e+00,-9.270348548889160156e+00,-3.936767578125000000e+00,-4.119873046875000000e-01,-9.765625000000000000e-01
6.193751215934753418e+01,-4.201823711395263672e+00,-2.238578557968140093e+00,-9.291896820068359375e+00,-3.852844238281250000e+00,-5.722045898437500000e-01,1.434326171875000000e+00
6.195019984245300293e+01,-4.201823711395263672e+00,-2.202665567398071733e+00,-9.366116523742675781e+00,-3.852844238281250000e+00,-4.119873046875000000e-01,3.280639648437500000e-01
6.196537780761718750e+01,-4.436455726623535156e+00,-2.202665567398071733e+00,-9.540893554687500000e+00,-4.043579101562500000e+00,-4.043579101562500000e-01,1.678466796875000000e+00
6.197942829132080078e+01,-4.474762916564941406e+00,-2.202665567398071733e+00,-9.392453193664550781e+00,-4.043579101562500000e+00,6.942749023437500000e-01,3.280639648437500000e-01
6.199244618415832520e+01,-4.474762916564941406e+00,-2.152387380599976030e+00,-9.392453193664550781e+00,-3.929138183593750000e+00,-4.043579101562500000e-01,-6.179809570312500000e-01
6.200655412673950195e+01,-4.400542736053466797e+00,-2.054224967956543413e+00,-9.392453193664550781e+00,-3.219604492187500000e+00,-5.722045898437500000e-01,-6.179809570312500000e-01
6.201898980140686035e+01,-4.390965938568115234e+00,-2.054224967956543413e+00,-9.497797966003417969e+00,-3.219604492187500000e+00,-1.983642578125000000e+00,3.051757812500000000e-02
6.203353977203369141e+01,-4.168304920196533203e+00,-2.365471124649048296e+00,-9.497797966003417969e+00,-1.998901367187500000e+00,-1.983642578125000000e+00,3.051757812500000000e-02
6.204539823532104492e+01,-4.122815132141113281e+00,-2.365471124649048296e+00,-9.232041358947753906e+00,-3.494262695312500000e+00,4.348754882812500000e-01,-1.213073730468750000e+00
6.206206321716308594e+01,-4.158728122711181641e+00,-2.413355350494384766e+00,-9.129091262817382812e+00,-3.494262695312500000e+00,4.348754882812500000e-01,-1.213073730468750000e+00
6.207280349731445312e+01,-4.062960147857666016e+00,-2.243366956710815430e+00,-9.129091262817382812e+00,-3.723144531250000000e+00,-1.296997070312500000e+00,2.113342285156250000e+00
6.208826780319213867e+01,-4.158728122711181641e+00,-2.243366956710815430e+00,-9.217676162719726562e+00,-4.478454589843750000e+00,-1.296997070312500000e+00,2.113342285156250000e+00
6.210294175148010254e+01,-4.747702121734619141e+00,-2.243366956710815430e+00,-9.569623947143556464e+00,-4.478454589843750000e+00,-8.239746093750000000e-01,1.770019531250000000e+00
6.211458563804626465e+01,-4.747702121734619141e+00,-2.154781579971313032e+00,-9.569623947143556464e+00,-4.524230957031250000e+00,-7.858276367187500000e-01,1.571655273437500000e+00
6.212965726852416992e+01,-4.714182853698730469e+00,-2.154781579971313032e+00,-9.569623947143556464e+00,-3.852844238281250000e+00,-4.806518554687500000e-01,-1.052856445312500000e+00
6.214416670799255371e+01,-4.491522312164306641e+00,-2.145204782485961914e+00,-9.461884498596193183e+00,-2.822875976562500000e+00,-4.806518554687500000e-01,-1.052856445312500000e+00
6.215709471702575684e+01,-3.926490783691406250e+00,-2.145204782485961914e+00,-9.011775016784667969e+00,-2.822875976562500000e+00,-1.548767089843750000e+00,5.798339843750000000e-01
6.216902184486389160e+01,-3.926490783691406250e+00,-2.145204782485961914e+00,-9.011775016784667969e+00,-4.699707031250000000e+00,-1.548767089843750000e+00,5.798339843750000000e-01
6.218623113632202148e+01,-4.429273128509521484e+00,-2.080561161041260210e+00,-9.169792175292966974e+00,-5.348205566406250000e+00,-1.548767089843750000e+00,5.798339843750000000e-01
6.219703030586242676e+01,-4.484339714050292969e+00,-2.080561161041260210e+00,-9.466672897338867188e+00,-5.348205566406250000e+00,-1.197814941406250000e+00,-2.136230468750000000e-01
6.221104550361633301e+01,-4.642356872558593750e+00,-2.104503154754638672e+00,-9.466672897338867188e+00,-4.730224609375000000e+00,-1.197814941406250000e+00,-1.594543457031250000e+00
6.222832465171813965e+01,-4.484339714050292969e+00,-2.104503154754638672e+00,-9.354146003723144531e+00,-4.493713378906250000e+00,-5.569458007812500000e-01,-1.594543457031250000e+00
6.223911976814270020e+01,-4.185064315795897549e+00,-2.035071372985840288e+00,-9.354146003723144531e+00,-4.730224609375000000e+00,-5.569458007812500000e-01,-1.487731933593750000e+00
6.225231671333312988e+01,-4.185064315795897549e+00,-2.035071372985840288e+00,-9.466672897338867188e+00,-3.532409667968750000e+00,-5.569458007812500000e-01,-8.850097656250000000e-01
6.226717472076416016e+01,-4.426878929138183594e+00,-2.035071372985840288e+00,-9.466672897338867188e+00,-3.532409667968750000e+00,-1.083374023437500000e+00,-3.814697265625000000e-01
6.228026390075683594e+01,-4.426878929138183594e+00,-2.056619167327880859e+00,-9.351751327514648438e+00,-3.532409667968750000e+00,-1.083374023437500000e+00,-4.653930664062500000e-01
6.229206919670104980e+01,-4.156333923339843750e+00,-2.056619167327880859e+00,-9.351751327514648438e+00,-3.700256347656250000e+00,-1.907348632812500000e+00,-3.814697265625000000e-01
6.230931973457336426e+01,-4.034229755401611328e+00,-2.056619167327880859e+00,-9.351751327514648438e+00,-3.700256347656250000e+00,-1.907348632812500000e+00,-4.653930664062500000e-01
6.232188177108764648e+01,-4.034229755401611328e+00,-2.442085742950439453e+00,-9.897629737854003906e+00,-3.700256347656250000e+00,-8.468627929687500000e-01,1.228332519531250000e+00
6.233426666259765625e+01,-4.587290287017822266e+00,-2.238578557968140093e+00,-9.205705642700195312e+00,-3.479003906250000000e+00,-8.468627929687500000e-01,-5.645751953125000000e-01
6.235128641128540039e+01,-4.587290287017822266e+00,-2.238578557968140093e+00,-9.205705642700195312e+00,-5.462646484375000000e+00,-8.468627929687500000e-01,-5.950927734375000000e-01
6.236249446868896484e+01,-4.587290287017822266e+00,-2.238578557968140093e+00,-9.205705642700195312e+00,-2.845764160156250000e+00,-3.204345703125000000e-01,-9.689331054687500000e-01
6.237552189826965332e+01,-4.472368717193604404e+00,-2.044648170471191406e+00,-9.172186851501463067e+00,-5.462646484375000000e+00,-3.204345703125000000e-01,-5.950927734375000000e-01
6.238724088668823242e+01,-4.479551315307617188e+00,-2.300827741622924805e+00,-9.816226959228515625e+00,-3.646850585937500000e+00,-3.204345703125000000e-01,-3.532409667968750000e+00
6.240230274200439453e+01,-4.479551315307617188e+00,-2.044648170471191406e+00,-9.114726066589355469e+00,-3.646850585937500000e+00,1.388549804687500000e+00,1.327514648437500000e+00
6.241460514068603516e+01,-4.647145271301269531e+00,-2.475604534149169922e+00,-9.967061042785644531e+00,-2.563476562500000000e+00,1.388549804687500000e+00,1.327514648437500000e+00
6.242976403236389160e+01,-4.647145271301269531e+00,-1.953668594360352007e+00,-8.927977561950683594e+00,-2.037048339843750000e+00,6.942749023437500000e-01,1.327514648437500000e+00
6.244206428527832031e+01,-4.924872875213623047e+00,-2.298433542251586914e+00,-9.674968719482421875e+00,-2.563476562500000000e+00,6.942749023437500000e-01,-2.655029296875000000e+00
6.245696520805358887e+01,-3.552995204925537109e+00,-2.250549554824829102e+00,-9.129091262817382812e+00,-3.814697265625000000e+00,6.942749023437500000e-01,-2.655029296875000000e+00
6.247208786010742188e+01,-4.869806289672851562e+00,-2.298433542251586914e+00,-9.674968719482421875e+00,-3.814697265625000000e+00,2.136230468750000000e-01,1.846313476562500000e+00
6.248428988456726074e+01,-4.252102375030518466e+00,-2.250549554824829102e+00,-9.129091262817382812e+00,-2.113342285156250000e+00,2.136230468750000000e-01,1.846313476562500000e+00
6.249890303611755371e+01,-4.869806289672851562e+00,-2.468421936035155806e+00,-9.866504669189453125e+00,-2.113342285156250000e+00,2.136230468750000000e-01,1.846313476562500000e+00
6.251090717315673828e+01,-4.252102375030518466e+00,-2.059013366699218750e+00,-8.882488250732421875e+00,-3.105163574218750000e+00,3.425598144531250000e+00,-3.700256347656250000e+00
6.252605843544006348e+01,-5.058948040008544922e+00,-2.360682725906372070e+00,-9.866504669189453125e+00,-3.303527832031250000e+00,-2.365112304687500000e+00,1.884460449218750000e+00
6.253805851936340332e+01,-3.586513996124268022e+00,-2.059013366699218750e+00,-8.882488250732421875e+00,-3.303527832031250000e+00,-2.365112304687500000e+00,2.067565917968750000e+00
6.255258345603942871e+01,-5.073313236236572266e+00,-2.116474151611328125e+00,-9.943119049072265625e+00,-3.509521484375000000e+00,-2.365112304687500000e+00,2.067565917968750000e+00
6.256790828704833984e+01,-4.551377296447753906e+00,-2.116474151611328125e+00,-9.294290542602539062e+00,-3.509521484375000000e+00,-6.484985351562500000e-01,1.373291015625000000e-01
6.257911348342895508e+01,-4.551377296447753906e+00,-2.358288526535034180e+00,-9.531316757202148438e+00,-4.547119140625000000e+00,-6.484985351562500000e-01,1.373291015625000000e-01
6.259487533569335938e+01,-4.118026733398437500e+00,-2.358288526535034180e+00,-9.354146003723144531e+00,-1.884460449218750000e+00,-6.484985351562500000e-01,-3.059387207031250000e+00
6.260688829421997070e+01,-4.118026733398437500e+00,-1.934514999389648438e+00,-9.354146003723144531e+00,-4.547119140625000000e+00,-5.950927734375000000e-01,8.850097656250000000e-01
6.262199711799621582e+01,-4.280832767486571377e+00,-1.934514999389648438e+00,-9.354146003723144531e+00,-3.814697265625000000e-02,-5.950927734375000000e-01,1.983642578125000000e+00
6.263416862487792969e+01,-4.280832767486571377e+00,-1.934514999389648438e+00,-8.954314231872558594e+00,-7.354736328125000000e+00,-3.173828125000000000e+00,2.082824707031250000e+00
6.264909791946411133e+01,-4.393360137939453125e+00,-2.109291553497314453e+00,-9.945513725280761719e+00,1.075744628906250000e+00,-3.173828125000000000e+00,2.082824707031250000e+00
6.266409349441528320e+01,-4.393360137939453125e+00,-2.109291553497314453e+00,-8.810662269592285156e+00,-8.064270019531250000e+00,-3.723144531250000000e+00,5.355834960937500000e+00
6.267600750923156738e+01,-4.393360137939453125e+00,-2.109291553497314453e+00,-9.308655738830566406e+00,1.525878906250000000e+00,6.942749023437500000e-01,-2.464294433593750000e+00
6.269137287139892578e+01,-4.795586109161376953e+00,-2.111685752868652344e+00,-9.308655738830566406e+00,-7.308959960937500000e+00,-1.136779785156250000e+00,2.220153808593750000e+00
6.270298624038696289e+01,-4.355052947998046875e+00,-2.336740732192993164e+00,-9.358934402465820312e+00,7.476806640625000000e-01,-1.136779785156250000e+00,0.000000000000000000e+00
6.271807599067687988e+01,-4.355052947998046875e+00,-2.336740732192993164e+00,-9.358934402465820312e+00,-3.898620605468750000e+00,-1.136779785156250000e+00,0.000000000000000000e+00
6.272960782051086426e+01,-4.355052947998046875e+00,-2.236184358596801758e+00,-9.583989143371582031e+00,-1.060485839843750000e+00,-1.045227050781250000e+00,-2.288818359375000000e-02
6.274526381492614746e+01,-3.921702384948730469e+00,-2.236184358596801758e+00,-9.265560150146484375e+00,-3.898620605468750000e+00,-1.045227050781250000e+00,-2.288818359375000000e-02
6.275963973999023438e+01,-4.570530891418457031e+00,-2.236184358596801758e+00,-9.734824180603027344e+00,-1.060485839843750000e+00,-5.645751953125000000e-01,-3.738403320312500000e-01
6.277420616149902344e+01,-4.228159904479980469e+00,-1.920149683952331543e+00,-9.265560150146484375e+00,-4.379272460937500000e+00,-2.677917480468750000e+00,2.059936523437500000e+00
6.278646039962768555e+01,-4.228159904479980469e+00,-1.920149683952331543e+00,-9.586383819580078125e+00,-4.379272460937500000e+00,8.850097656250000000e-01,-4.241943359375000000e+00
6.279850435256958008e+01,-4.228159904479980469e+00,-1.939303398132323997e+00,-9.586383819580078125e+00,-4.379272460937500000e+00,-8.850097656250000000e-01,-2.075195312500000000e+00
6.281628012657165527e+01,-3.859452962875366211e+00,-2.068590164184570312e+00,-9.586383819580078125e+00,-1.434326171875000000e+00,-8.850097656250000000e-01,-2.075195312500000000e+00
6.282847309112548828e+01,-4.879383087158203125e+00,-2.078166961669921875e+00,-9.370904922485351562e+00,-1.434326171875000000e+00,-8.850097656250000000e-01,-2.075195312500000000e+00
6.284042048454284668e+01,-4.546588897705078125e+00,-2.078166961669921875e+00,-9.370904922485351562e+00,-1.434326171875000000e+00,-1.388549804687500000e+00,2.128601074218750000e+00
6.285828471183776855e+01,-4.546588897705078125e+00,-2.442085742950439453e+00,-9.370904922485351562e+00,-2.548217773437500000e+00,-5.340576171875000000e-02,-1.785278320312500000e+00
6.286879730224609375e+01,-4.546588897705078125e+00,-2.442085742950439453e+00,-9.224859237670898438e+00,-6.637573242187500000e-01,-5.340576171875000000e-02,-1.785278320312500000e+00
6.288288831710815430e+01,-4.204217910766602451e+00,-2.442085742950439453e+00,-9.224859237670898438e+00,-2.548217773437500000e+00,-5.340576171875000000e-02,-1.785278320312500000e+00
6.289726161956787109e+01,-4.204217910766602451e+00,-2.042253971099853072e+00,-9.224859237670898438e+00,-8.392333984375000000e-01,3.997802734375000000e+00,-3.570556640625000000e+00
6.291024351119995117e+01,-4.204217910766602451e+00,-2.317587137222290039e+00,-9.136273384094238281e+00,-3.067016601562500000e+00,-1.724243164062500000e+00,7.629394531250000000e-03
6.292170238494873047e+01,-3.969586372375487837e+00,-2.317587137222290039e+00,-8.975861549377441406e+00,-1.541137695312500000e+00,-2.983093261718750000e+00,7.629394531250000000e-03
6.293918871879577637e+01,-4.335899353027343750e+00,-2.317587137222290039e+00,-9.136273384094238281e+00,-1.831054687500000000e+00,-2.983093261718750000e+00,7.629394531250000000e-03
6.295239472389221191e+01,-4.316745758056641513e+00,-2.676717519760131836e+00,-9.035717010498046875e+00,-1.831054687500000000e+00,-5.226135253906250000e+00,5.302429199218750000e+00
6.296362400054931641e+01,-4.316745758056641513e+00,-2.676717519760131836e+00,-9.248801231384275567e+00,-2.624511718750000000e+00,2.494812011718750000e+00,-2.899169921875000000e-01
6.298122525215148926e+01,-4.316745758056641513e+00,-2.676717519760131836e+00,-9.035717010498046875e+00,-2.624511718750000000e+00,2.494812011718750000e+00,-2.899169921875000000e-01
6.299196052551269531e+01,-4.209006309509276456e+00,-2.233790159225463867e+00,-8.906430244445800781e+00,-2.624511718750000000e+00,2.494812011718750000e+00,-2.899169921875000000e-01
6.300594902038574219e+01,-4.209006309509276456e+00,-2.233790159225463867e+00,-8.906430244445800781e+00,-3.540039062500000000e+00,-1.617431640625000000e+00,1.388549804687500000e+00
6.302024459838867188e+01,-4.209006309509276456e+00,-2.612073898315429688e+00,-9.540893554687500000e+00,-3.540039062500000000e+00,-1.617431640625000000e+00,1.388549804687500000e+00
6.303315258026123047e+01,-4.067748546600341797e+00,-2.612073898315429688e+00,-9.540893554687500000e+00,-2.990722656250000000e+00,-1.617431640625000000e+00,1.136779785156250000e+00
6.304753208160400391e+01,-4.606443881988525391e+00,-2.061407566070556641e+00,-9.047688484191896308e+00,-2.990722656250000000e+00,2.059936523437500000e-01,-2.189636230468750000e+00
6.305988907814025879e+01,-4.606443881988525391e+00,-2.061407566070556641e+00,-9.047688484191896308e+00,-5.455017089843750000e+00,-3.417968750000000000e+00,1.136779785156250000e+00
6.307532382011413574e+01,-4.606443881988525391e+00,-2.255337953567504883e+00,-9.181763648986816406e+00,-5.455017089843750000e+00,1.495361328125000000e+00,-4.013061523437500000e+00
6.308709692955017090e+01,-4.726153850555419922e+00,-2.255337953567504883e+00,-9.181763648986816406e+00,-4.425048828125000000e-01,2.334594726562500000e+00,-2.082824707031250000e+00
6.310230207443237305e+01,-3.955221176147461382e+00,-2.255337953567504883e+00,-9.181763648986816406e+00,-4.425048828125000000e-01,2.334594726562500000e+00,-2.082824707031250000e+00
6.311440038681030273e+01,-4.453215122222900391e+00,-2.492363929748535156e+00,-9.320627212524414062e+00,-9.231567382812500000e-01,1.922607421875000000e+00,-2.082824707031250000e+00
6.312899637222290039e+01,-4.390965938568115234e+00,-2.492363929748535156e+00,-9.320627212524414062e+00,-9.231567382812500000e-01,-2.670288085937500000e+00,2.464294433593750000e+00
6.314366292953491211e+01,-4.390965938568115234e+00,-2.322375535964965820e+00,-9.157821655273437500e+00,-9.231567382812500000e-01,-5.950927734375000000e-01,-1.091003417968750000e+00
6.315550780296325684e+01,-4.390965938568115234e+00,-2.322375535964965820e+00,-9.157821655273437500e+00,-1.800537109375000000e+00,-2.212524414062500000e+00,1.113891601562500000e+00
6.317054605484008789e+01,-3.892971992492676225e+00,-2.662352323532104492e+00,-9.162610054016113281e+00,-2.243041992187500000e+00,-9.918212890625000000e-01,5.187988281250000000e-01
6.318326449394226074e+01,-4.941632270812988281e+00,-2.662352323532104492e+00,-9.198522567749023438e+00,-2.243041992187500000e+00,-9.918212890625000000e-01,5.187988281250000000e-01
6.319738435745239258e+01,-3.481169223785400391e+00,-2.662352323532104492e+00,-9.186552047729492188e+00,-4.951477050781250000e+00,-9.918212890625000000e-01,5.187988281250000000e-01
6.321284222602844238e+01,-4.723759651184082031e+00,-2.305616140365600586e+00,-9.198522567749023438e+00,-8.316040039062500000e-01,3.540039062500000000e+00,-4.676818847656250000e+00
6.322438645362854004e+01,-4.429273128509521484e+00,-2.518700122833251953e+00,-9.186552047729492188e+00,-1.098632812500000000e+00,-5.126953125000000000e+00,3.974914550781250000e+00
6.323982739448547363e+01,-4.429273128509521484e+00,-2.360682725906372070e+00,-9.260771751403806817e+00,-8.316040039062500000e-01,-1.815795898437500000e+00,-6.408691406250000000e-01
6.325187993049621582e+01,-4.429273128509521484e+00,-2.439691543579101562e+00,-9.457096099853515625e+00,-1.098632812500000000e+00,-1.815795898437500000e+00,8.926391601562500000e-01
6.327062082290649414e+01,-3.919308185577392578e+00,-2.439691543579101562e+00,-9.457096099853515625e+00,-3.028869628906250000e+00,1.754760742187500000e-01,8.926391601562500000e-01
6.328129339218139648e+01,-4.881777286529541016e+00,-2.439691543579101562e+00,-9.327809333801269531e+00,-3.028869628906250000e+00,2.006530761718750000e+00,8.926391601562500000e-01
6.329419136047363281e+01,-4.019864559173583984e+00,-2.578555107116699219e+00,-9.327809333801269531e+00,-3.028869628906250000e+00,2.006530761718750000e+00,3.433227539062500000e+00
6.330582213401794434e+01,-4.627991676330566406e+00,-2.578555107116699219e+00,-9.397241592407226562e+00,-7.247924804687500000e-01,3.753662109375000000e+00,-5.645751953125000000e+00
6.332081389427185059e+01,-4.019864559173583984e+00,-2.578555107116699219e+00,-9.397241592407226562e+00,1.373291015625000000e+00,-1.144409179687500000e-01,-1.937866210937500000e+00
6.333570766448974609e+01,-4.132391929626464844e+00,-2.054224967956543413e+00,-8.714894294738769531e+00,1.373291015625000000e+00,-1.144409179687500000e-01,-1.937866210937500000e+00
6.334773302078247070e+01,-4.132391929626464844e+00,-2.054224967956543413e+00,-8.714894294738769531e+00,-5.447387695312500000e+00,-1.144409179687500000e-01,7.858276367187500000e-01
6.336263632774353027e+01,-4.242525577545166016e+00,-2.054224967956543413e+00,-9.392453193664550781e+00,-5.447387695312500000e+00,6.408691406250000000e-01,7.858276367187500000e-01
6.337454438209533691e+01,-4.242525577545166016e+00,-2.379836559295654297e+00,-9.392453193664550781e+00,-3.593444824218750000e+00,6.408691406250000000e-01,7.858276367187500000e-01
6.338929057121276855e+01,-4.867412090301513672e+00,-2.118868350982666016e+00,-9.380481719970703125e+00,-3.166198730468750000e+00,6.408691406250000000e-01,-1.602172851562500000e-01
6.340414381027221680e+01,-3.557783603668212891e+00,-2.379836559295654297e+00,-9.100360870361328125e+00,-3.593444824218750000e+00,4.577636718750000000e-01,1.708984375000000000e+00
6.341675519943237305e+01,-4.812345504760742188e+00,-2.434903144836425781e+00,-9.380481719970703125e+00,-3.570556640625000000e+00,4.577636718750000000e-01,1.136779785156250000e+00
6.342854070663452148e+01,-3.909731388092041016e+00,-2.434903144836425781e+00,-8.999804496765136719e+00,-3.570556640625000000e+00,-9.613037109375000000e-01,1.136779785156250000e+00
6.344619464874267578e+01,-3.976768970489501953e+00,-1.812410712242126465e+00,-8.700529098510742188e+00,-3.570556640625000000e+00,-9.613037109375000000e-01,1.136779785156250000e+00
6.345898365974426270e+01,-3.976768970489501953e+00,-1.812410712242126465e+00,-8.700529098510742188e+00,-5.043029785156250000e+00,-8.544921875000000000e-01,-2.182006835937500000e+00
6.347080230712890625e+01,-4.170699119567871094e+00,-2.829946279525756836e+00,-8.678980827331542969e+00,-6.561279296875000000e+00,-8.544921875000000000e-01,2.746582031250000000e+00
6.348820257186889648e+01,-4.314351558685303623e+00,-2.829946279525756836e+00,-9.440337181091306817e+00,-5.043029785156250000e+00,3.181457519531250000e+00,-2.182006835937500000e+00
6.349887943267822266e+01,-4.314351558685303623e+00,-2.118868350982666016e+00,-8.678980827331542969e+00,-6.561279296875000000e+00,-1.388549804687500000e+00,7.240295410156250000e+00
6.351329445838928223e+01,-4.692635059356689453e+00,-2.118868350982666016e+00,-9.440337181091306817e+00,-1.243591308593750000e+00,3.585815429687500000e+00,-5.683898925781250000e+00
6.352719473838806152e+01,-4.153939723968506748e+00,-1.872265696525573508e+00,-8.463502883911132812e+00,-2.342224121093750000e+00,-2.777099609375000000e+00,-5.645751953125000000e-01
6.353935885429382324e+01,-4.673481464385986328e+00,-2.837128877639770508e+00,-1.007240676879882812e+01,-2.342224121093750000e+00,-1.350402832031250000e+00,-5.645751953125000000e-01
6.355137991905212402e+01,-4.153939723968506748e+00,-2.300827741622924805e+00,-8.836997985839843750e+00,-2.342224121093750000e+00,-1.350402832031250000e+00,-5.645751953125000000e-01
6.356915593147277832e+01,-4.027047157287598544e+00,-2.300827741622924805e+00,-9.028534889221193183e+00,-5.973815917968750000e+00,-2.441406250000000000e-01,2.792358398437500000e+00
6.358003854751586914e+01,-4.027047157287598544e+00,-2.300827741622924805e+00,-8.939949035644531250e+00,-5.928039550781250000e+00,5.111694335937500000e-01,2.792358398437500000e+00
6.359353971481323242e+01,-4.137180328369141513e+00,-2.573766708374023438e+00,-9.028534889221193183e+00,-5.973815917968750000e+00,5.111694335937500000e-01,2.792358398437500000e+00
6.361126971244812012e+01,-4.426878929138183594e+00,-2.573766708374023438e+00,-8.939949035644531250e+00,-5.928039550781250000e+00,8.010864257812500000e-01,-2.212524414062500000e-01
6.362248730659484863e+01,-4.426878929138183594e+00,-2.595314502716064453e+00,-9.023746490478515625e+00,-6.530761718750000000e+00,8.010864257812500000e-01,-2.212524414062500000e-01
6.363564443588256836e+01,-4.426878929138183594e+00,-2.607285499572753906e+00,-9.023746490478515625e+00,-1.472473144531250000e+00,1.594543457031250000e+00,-4.638671875000000000e+00
6.365021872520446777e+01,-4.015076160430908203e+00,-2.607285499572753906e+00,-9.023746490478515625e+00,9.918212890625000000e-02,-1.693725585937500000e+00,-2.777099609375000000e+00
6.366343641281127930e+01,-3.677493810653687412e+00,-2.296039342880249023e+00,-9.684545516967773438e+00,9.918212890625000000e-02,1.983642578125000000e-01,-2.777099609375000000e+00
6.367538404464721680e+01,-3.677493810653687412e+00,-2.154781579971313032e+00,-9.538499832153320312e+00,-1.525878906250000000e+00,1.983642578125000000e-01,-4.348754882812500000e-01
6.368960547447204590e+01,-4.469974517822266513e+00,-2.296039342880249023e+00,-9.538499832153320312e+00,-7.255554199218750000e+00,1.983642578125000000e-01,1.174926757812500000e+00
6.370509791374206543e+01,-4.469974517822266513e+00,-2.870647907257080078e+00,-9.538499832153320312e+00,-1.525878906250000000e+00,3.128051757812500000e-01,-4.348754882812500000e-01
6.371715450286865234e+01,-4.398148536682128906e+00,-2.870647907257080078e+00,-9.504981040954589844e+00,-1.220703125000000000e-01,-8.621215820312500000e-01,-3.890991210937500000e-01
6.373192930221557617e+01,-4.398148536682128906e+00,-2.427720546722412109e+00,-9.603142738342283380e+00,-1.220703125000000000e-01,-1.007080078125000000e+00,-3.890991210937500000e-01
6.374396872520446777e+01,-4.513070106506347656e+00,-2.427720546722412109e+00,-9.603142738342283380e+00,-1.220703125000000000e-01,-1.007080078125000000e+00,-3.890991210937500000e-01
6.375841641426086426e+01,-4.513070106506347656e+00,-2.427720546722412109e+00,-9.603142738342283380e+00,-1.518249511718750000e+00,-2.960205078125000000e+00,-4.577636718750000000e-02
6.377041864395141602e+01,-4.084507942199707031e+00,-2.044648170471191406e+00,-9.026140213012695312e+00,-1.518249511718750000e+00,2.593994140625000000e+00,-3.402709960937500000e+00
6.378563618659973145e+01,-3.782838582992553711e+00,-2.044648170471191406e+00,-9.026140213012695312e+00,-2.578735351562500000e+00,-3.036499023437500000e+00,-4.577636718750000000e-02
6.379792022705078125e+01,-4.084507942199707031e+00,-2.545036315917968750e+00,-9.402029991149902344e+00,-2.578735351562500000e+00,2.593994140625000000e+00,-3.181457519531250000e+00
6.381302189826965332e+01,-4.194641113281250000e+00,-2.545036315917968750e+00,-9.402029991149902344e+00,-6.568908691406250000e+00,-3.036499023437500000e+00,4.806518554687500000e+00
6.382786321640014648e+01,-4.462791919708251953e+00,-2.293645143508911133e+00,-9.351751327514648438e+00,-9.994506835937500000e-01,1.777648925781250000e+00,-2.349853515625000000e+00
6.383971667289733887e+01,-4.194641113281250000e+00,-2.229001760482788086e+00,-9.196128845214843750e+00,-3.402709960937500000e+00,1.777648925781250000e+00,-1.289367675781250000e+00
6.385477185249328613e+01,-4.264073371887207031e+00,-2.229001760482788086e+00,-9.181763648986816406e+00,-3.402709960937500000e+00,1.777648925781250000e+00,-1.289367675781250000e+00
6.386633872985839844e+01,-4.264073371887207031e+00,-2.616862297058105025e+00,-9.181763648986816406e+00,-3.402709960937500000e+00,6.637573242187500000e-01,-1.289367675781250000e+00
6.388150167465209961e+01,-4.264073371887207031e+00,-2.616862297058105025e+00,-9.181763648986816406e+00,-7.797241210937500000e+00,-3.967285156250000000e+00,4.707336425781250000e+00
6.389488577842712402e+01,-5.039794445037841797e+00,-2.700659513473510742e+00,-1.022802925109863281e+01,1.823425292968750000e+00,6.637573242187500000e-01,-5.279541015625000000e+00
6.390863108634948730e+01,-3.366247415542602539e+00,-2.521094322204589844e+00,-8.865728378295898438e+00,4.272460937500000000e-01,-5.638122558593750000e+00,5.645751953125000000e+00
6.392107534408569336e+01,-3.955221176147461382e+00,-2.619256734848022461e+00,-9.588777542114257812e+00,4.272460937500000000e-01,-1.121520996093750000e+00,-1.296997070312500000e+00
6.393601870536804199e+01,-3.916913986206055132e+00,-2.226607561111450195e+00,-8.810662269592285156e+00,-8.468627929687500000e-01,-1.121520996093750000e+00,-1.296997070312500000e+00
6.394787406921386719e+01,-3.955221176147461382e+00,-2.619256734848022461e+00,-9.378087997436523438e+00,-7.247924804687500000e+00,-1.121520996093750000e+00,-1.296997070312500000e+00
6.396270346641540527e+01,-4.003105163574218750e+00,-2.260126352310180664e+00,-9.378087997436523438e+00,-8.468627929687500000e-01,8.392333984375000000e-01,-2.258300781250000000e+00
6.397804975509643555e+01,-4.407725334167480469e+00,-2.260126352310180664e+00,-9.378087997436523438e+00,-6.256103515625000000e+00,-1.937866210937500000e+00,5.165100097656250000e+00
6.398964786529541016e+01,-4.438849925994873047e+00,-2.260126352310180664e+00,-9.160215377807617188e+00,-3.860473632812500000e+00,-1.586914062500000000e+00,-2.593994140625000000e-01
6.400474023818969727e+01,-4.407725334167480469e+00,-2.458845138549804688e+00,-9.160215377807617188e+00,-3.860473632812500000e+00,-1.586914062500000000e+00,-2.593994140625000000e-01
6.401641964912414551e+01,-4.244919776916503906e+00,-2.458845138549804688e+00,-8.920795440673828125e+00,-2.761840820312500000e+00,-3.585815429687500000e-01,-2.593994140625000000e-01
6.403126335144042969e+01,-4.244919776916503906e+00,-2.712630510330200195e+00,-9.880869865417480469e+00,-2.761840820312500000e+00,-3.585815429687500000e-01,5.950927734375000000e-01
6.404405426979064941e+01,-4.192246913909912109e+00,-2.104503154754638672e+00,-8.370128631591798651e+00,-1.106262207031250000e+00,-3.585815429687500000e-01,5.950927734375000000e-01
6.405891013145446777e+01,-4.378994941711426669e+00,-2.712630510330200195e+00,-9.514557838439939630e+00,-7.881164550781250000e+00,-6.637573242187500000e-01,3.204345703125000000e+00
6.407312083244323730e+01,-4.244919776916503906e+00,-1.800439596176147683e+00,-9.191340446472167969e+00,1.831054687500000000e+00,1.365661621093750000e+00,-3.280639648437500000e+00
6.408606743812561035e+01,-4.244919776916503906e+00,-2.640804529190063477e+00,-9.191340446472167969e+00,-1.119232177734375000e+01,-2.067565917968750000e+00,4.943847656250000000e+00
6.410098910331726074e+01,-4.244919776916503906e+00,-2.200271368026733398e+00,-9.184157371520996094e+00,4.470825195312500000e+00,2.410888671875000000e+00,-6.866455078125000000e+00
6.411514782905578613e+01,-4.374206542968750000e+00,-2.200271368026733398e+00,-9.165003776550292969e+00,-1.319122314453125000e+01,-5.653381347656250000e+00,9.109497070312500000e+00
6.412791347503662109e+01,-4.374206542968750000e+00,-2.200271368026733398e+00,-9.165003776550292969e+00,1.533508300781250000e+00,1.243591308593750000e+00,-5.203247070312500000e+00
6.414013028144836426e+01,-4.288015365600586826e+00,-2.269703149795531782e+00,-9.574412345886230469e+00,-6.362915039062500000e+00,-1.266479492187500000e+00,7.553100585937500000e-01
6.415719270706176758e+01,-4.288015365600586826e+00,-2.269703149795531782e+00,-9.574412345886230469e+00,4.806518554687500000e-01,1.243591308593750000e+00,7.553100585937500000e-01
6.416931390762329102e+01,-3.684676408767700195e+00,-2.269703149795531782e+00,-9.574412345886230469e+00,-6.362915039062500000e+00,6.103515625000000000e-02,8.621215820312500000e-01
6.418229889869689941e+01,-4.486733913421630859e+00,-2.061407566070556641e+00,-8.983044624328613281e+00,-3.280639648437500000e+00,1.617431640625000000e+00,8.621215820312500000e-01
6.419920492172241211e+01,-4.599261283874511719e+00,-2.298433542251586914e+00,-9.612719535827636719e+00,-3.280639648437500000e+00,6.103515625000000000e-02,5.149841308593750000e+00
6.421014595031738281e+01,-4.599261283874511719e+00,-1.972822189331054910e+00,-8.983044624328613281e+00,-3.280639648437500000e+00,4.920959472656250000e+00,-3.028869628906250000e+00
6.422336125373840332e+01,-4.022258758544921875e+00,-2.276885747909545898e+00,-1.041717147827148438e+01,-4.104614257812500000e+00,-4.272460937500000000e-01,5.668640136718750000e+00
6.423817205429077148e+01,-4.022258758544921875e+00,-2.276885747909545898e+00,-7.678204536437987393e+00,-9.620666503906250000e+00,-4.272460937500000000e-01,5.668640136718750000e+00
6.425105428695678711e+01,-2.875436305999756303e+00,-2.276885747909545898e+00,-1.065419769287109375e+01,-1.109313964843750000e+01,-1.121520996093750000e+00,9.353637695312500000e+00
6.426287579536437988e+01,-5.650315761566162109e+00,-2.767697095870972124e+00,-9.552865028381347656e+00,-1.110839843750000000e+01,-1.121520996093750000e+00,9.483337402343750000e+00
6.428019022941589355e+01,-6.064512729644775391e+00,-3.224989652633666992e+00,-1.126471900939941406e+01,-1.110839843750000000e+01,-8.148193359375000000e+00,9.483337402343750000e+00
6.429341936111450195e+01,-6.064512729644775391e+00,-3.224989652633666992e+00,-9.552865028381347656e+00,-2.677917480468750000e+00,-2.937316894531250000e+00,4.562377929687500000e+00
6.430532741546630859e+01,-3.165134668350220171e+00,-2.595314502716064453e+00,-9.131484985351562500e+00,-2.677917480468750000e+00,-4.959106445312500000e+00,4.562377929687500000e+00
6.431977415084838867e+01,-3.165134668350220171e+00,-2.075772762298583984e+00,-9.131484985351562500e+00,-1.692199707031250000e+01,-4.959106445312500000e+00,4.562377929687500000e+00
6.433180475234985352e+01,-3.165134668350220171e+00,-2.075772762298583984e+00,-1.007719516754150391e+01,-1.692199707031250000e+01,-5.096435546875000000e+00,-4.432678222656250000e+00
6.434701681137084961e+01,-4.180275917053223544e+00,-2.047042369842529297e+00,-1.007719516754150391e+01,-1.692199707031250000e+01,-9.063720703125000000e+00,-4.432678222656250000e+00
6.436218428611755371e+01,1.771709173917770386e-01,-2.047042369842529297e+00,-1.056561183929443359e+01,-3.239440917968750000e+01,-9.063720703125000000e+00,8.895874023437500000e+00
6.437411236763000488e+01,-4.180275917053223544e+00,1.359906554222106934e+00,-1.292868900299072443e+01,-3.239440917968750000e+01,-9.063720703125000000e+00,3.764343261718750000e+01
6.438908815383911133e+01,-1.171243476867675781e+01,1.029746150970458984e+01,-1.292868900299072443e+01,-3.239440917968750000e+01,1.525878906250000000e-02,1.105880737304687642e+02
6.440086245536804199e+01,-1.961330032348632812e+01,1.190875911712646484e+01,-8.010998725891111505e+00,-1.514968872070312500e+02,5.126190185546875000e+01,3.764343261718750000e+01
6.441598272323608398e+01,-1.171243476867675781e+01,1.029746150970458984e+01,-8.010998725891111505e+00,-1.546859741210937500e+02,5.126190185546875000e+01,-1.828308105468750000e+02
6.442769908905029297e+01,1.961270141601562500e+01,-2.327163934707641602e+00,-1.961330032348632812e+01,-1.546859741210937500e+02,5.126190185546875000e+01,-1.828308105468750000e+02
6.444336509704589844e+01,1.961270141601562500e+01,-2.327163934707641602e+00,-1.961330032348632812e+01,-2.436828613281250000e+01,-7.369995117187500000e+00,8.734893798828125000e+01
6.445437026023864746e+01,-1.338358688354492188e+01,-1.606509327888488770e+00,-1.043393039703369318e+01,-2.289581298828125000e+01,-7.369995117187500000e+00,8.734893798828125000e+01
6.447020578384399414e+01,-1.363976669311523438e+01,-1.606509327888488770e+00,-7.927201747894287109e+00,-2.289581298828125000e+01,-7.369995117187500000e+00,-4.073333740234375000e+01
6.448442935943603516e+01,-1.338358688354492188e+01,-3.143586874008178711e+00,-7.927201747894287109e+00,-2.289581298828125000e+01,5.523681640625000000e+00,-4.260253906250000000e+01
6.449727225303649902e+01,-3.268085241317748579e+00,-3.143586874008178711e+00,-7.927201747894287109e+00,-1.159667968750000000e+01,-1.029968261718750000e+00,-4.073333740234375000e+01
6.451231384277343750e+01,-3.268085241317748579e+00,9.433154463768004261e-01,-6.761225700378417969e+00,-1.159667968750000000e+01,5.523681640625000000e+00,1.952362060546875000e+01
6.452424788475036621e+01,-1.059194850921630682e+01,9.433154463768004261e-01,-6.761225700378417969e+00,-1.128387451171875000e+01,-1.029968261718750000e+00,1.952362060546875000e+01
6.453859829902648926e+01,-1.059194850921630682e+01,-9.337386488914489746e-02,-9.138668060302734375e+00,-1.128387451171875000e+01,6.240844726562500000e+00,2.357482910156250000e+00
6.455393648147583008e+01,-3.031059265136718750e+00,-6.488286256790161133e-01,-9.775525093078613281e+00,-5.859375000000000000e+00,-5.035400390625000000e-01,2.357482910156250000e+00
6.456759333610534668e+01,-3.031059265136718750e+00,-7.110778689384459339e-01,-9.775525093078613281e+00,-5.859375000000000000e+00,1.731872558593750000e+00,1.364898681640625000e+01
6.458096861839294434e+01,-4.280832767486571377e+00,-1.247379064559936301e+00,-9.789890289306640625e+00,-5.859375000000000000e+00,1.731872558593750000e+00,1.364898681640625000e+01
6.459289574623107910e+01,-6.497863292694092685e+00,-1.247379064559936301e+00,-9.789890289306640625e+00,-1.426696777343750000e+00,1.731872558593750000e+00,8.819580078125000000e+00
6.460771656036376953e+01,-6.497863292694092685e+00,-1.247379064559936301e+00,-9.847351074218750000e+00,-1.426696777343750000e+00,4.158020019531250000e+00,-5.653381347656250000e+00
6.462522006034851074e+01,-5.370194435119628906e+00,-7.062894701957702637e-01,-9.370904922485351562e+00,-1.426696777343750000e+00,-3.318786621093750000e+00,-5.653381347656250000e+00
6.463591313362121582e+01,-4.247313976287841797e+00,-7.062894701957702637e-01,-9.370904922485351562e+00,-5.920410156250000000e+00,2.059936523437500000e-01,2.723693847656250000e+00
6.465008640289306641e+01,-5.370194435119628906e+00,-7.062894701957702637e-01,-9.370904922485351562e+00,-5.920410156250000000e+00,2.059936523437500000e-01,2.723693847656250000e+00
6.466413736343383789e+01,-4.247313976287841797e+00,-1.764526605606079102e+00,-1.007240676879882812e+01,-5.920410156250000000e+00,2.059936523437500000e-01,-1.602172851562500000e-01
6.467712473869323730e+01,-3.761290788650512695e+00,-1.764526605606079102e+00,-1.007240676879882812e+01,-2.243041992187500000e+00,-5.035400390625000000e-01,-4.318237304687500000e+00
6.469147849082946777e+01,-3.478775024414062500e+00,-7.661445140838623047e-01,-9.806650161743164062e+00,-2.243041992187500000e+00,-5.035400390625000000e-01,-1.602172851562500000e-01
6.470617365837097168e+01,-2.535459518432616743e+00,-7.661445140838623047e-01,-9.806650161743164062e+00,-4.676818847656250000e+00,-2.059936523437500000e-01,9.689331054687500000e-01
6.471901750564575195e+01,-2.535459518432616743e+00,-1.369483351707458496e+00,-1.052012252807617188e+01,-4.676818847656250000e+00,8.087158203125000000e-01,7.896423339843750000e+00
6.473137116432189941e+01,-7.534552574157714844e+00,-1.369483351707458496e+00,-1.052012252807617188e+01,1.586914062500000000e+00,8.087158203125000000e-01,7.896423339843750000e+00
6.474826669692993164e+01,-7.534552574157714844e+00,-1.151610970497131126e+00,-8.741230010986326349e+00,1.586914062500000000e+00,9.765625000000000000e-01,-1.968383789062500000e+00
6.476119852066040039e+01,-3.303998231887817383e+00,-1.151610970497131126e+00,-8.741230010986326349e+00,-2.922058105468750000e+00,4.959106445312500000e-01,-1.968383789062500000e+00
6.477286863327026367e+01,-3.303998231887817383e+00,-1.151610970497131126e+00,-8.947131156921386719e+00,-2.922058105468750000e+00,4.959106445312500000e-01,3.997802734375000000e+00
6.479010963439941406e+01,-4.386177539825440341e+00,-3.974374830722808838e-01,-8.947131156921386719e+00,-2.922058105468750000e+00,-1.106262207031250000e+00,8.216857910156250000e+00
6.480366396903991699e+01,-5.753266811370849609e+00,-3.974374830722808838e-01,-8.947131156921386719e+00,-6.820678710937500000e+00,-1.106262207031250000e+00,8.216857910156250000e+00
6.481423902511596680e+01,-5.753266811370849609e+00,-9.911994934082032360e-01,-9.866504669189453125e+00,-6.820678710937500000e+00,-2.845764160156250000e+00,-1.281738281250000000e+00
6.482911586761474609e+01,-3.126827478408813032e+00,-9.911994934082032360e-01,-9.866504669189453125e+00,-1.487731933593750000e+00,6.942749023437500000e-01,-1.281738281250000000e+00
6.484176301956176758e+01,-3.126827478408813032e+00,-4.908113479614257812e-01,-8.343792915344236505e+00,-1.487731933593750000e+00,-5.950927734375000000e-01,4.257202148437500000e+00
6.485366320610046387e+01,-5.726930141448974609e+00,-4.908113479614257812e-01,-8.343792915344236505e+00,-6.523132324218750000e+00,-5.950927734375000000e-01,4.257202148437500000e+00
6.487129235267639160e+01,-5.726930141448974609e+00,-9.026139974594116211e-01,-9.253589630126953125e+00,-6.523132324218750000e+00,-5.950927734375000000e-01,-4.058837890625000000e+00
6.488418149948120117e+01,-3.761290788650512695e+00,-9.026139974594116211e-01,-9.253589630126953125e+00,-6.523132324218750000e+00,1.525878906250000000e-02,-4.058837890625000000e+00
6.489622211456298828e+01,-3.761290788650512695e+00,-9.026139974594116211e-01,-9.253589630126953125e+00,-8.674621582031250000e+00,1.525878906250000000e-02,8.544921875000000000e-01
6.491077256202697754e+01,-4.848258495330810547e+00,-1.611297726631164551e+00,-1.062786102294922053e+01,-8.674621582031250000e+00,9.155273437500000000e-01,1.754760742187500000e+00
6.492277979850769043e+01,-5.461174011230468750e+00,-1.611297726631164551e+00,-1.062786102294922053e+01,-2.388000488281250000e+00,7.019042968750000000e-01,1.754760742187500000e+00
6.493816685676574707e+01,-5.461174011230468750e+00,-7.805097699165344238e-01,-9.349357604980466974e+00,-1.510620117187500000e+00,7.019042968750000000e-01,-1.876831054687500000e+00
6.494996762275695801e+01,-2.829946279525756836e+00,-7.805097699165344238e-01,-9.349357604980466974e+00,-1.510620117187500000e+00,-2.449035644531250000e+00,-1.876831054687500000e+00
6.496519875526428223e+01,-2.829946279525756836e+00,-1.649604916572570801e+00,-9.617507934570312500e+00,-1.510620117187500000e+00,-2.449035644531250000e+00,-4.959106445312500000e-01
6.497970128059387207e+01,-5.949591159820557529e+00,-1.649604916572570801e+00,-9.617507934570312500e+00,-6.210327148437500000e+00,-2.449035644531250000e+00,2.754211425781250000e+00
6.499183607101440430e+01,-5.949591159820557529e+00,-1.285686254501342773e+00,-9.931148529052734375e+00,-2.044677734375000000e+00,7.247924804687500000e-01,-4.959106445312500000e-01
6.500730085372924805e+01,-3.921702384948730469e+00,-1.003170490264892578e+00,-8.932765960693359375e+00,-3.974914550781250000e+00,-8.697509765625000000e-01,1.983642578125000000e+00
6.501927399635314941e+01,-3.921702384948730469e+00,-1.218648672103881836e+00,-9.931148529052734375e+00,-3.189086914062500000e+00,-8.697509765625000000e-01,1.983642578125000000e+00
6.503440713882446289e+01,-4.120420932769774502e+00,-1.003170490264892578e+00,-8.932765960693359375e+00,-3.974914550781250000e+00,-8.697509765625000000e-01,1.983642578125000000e+00
6.504617834091186523e+01,-4.920084476470947266e+00,-1.218648672103881836e+00,-9.979032516479492188e+00,-4.814147949218750000e+00,-1.411437988281250000e+00,1.678466796875000000e+00
6.506044983863830566e+01,-4.920084476470947266e+00,-7.637503147125244141e-01,-8.781931877136230469e+00,-4.814147949218750000e+00,-2.975463867187500000e-01,1.655578613281250000e+00
6.507581067085266113e+01,-4.345476150512694424e+00,-8.595184087753295898e-01,-8.781931877136230469e+00,-4.814147949218750000e+00,1.983642578125000000e-01,-1.861572265625000000e+00
6.508761572837829590e+01,-4.211400508880615234e+00,-8.595184087753295898e-01,-8.781931877136230469e+00,-1.281738281250000000e+00,1.983642578125000000e-01,-1.861572265625000000e+00
6.510287308692932129e+01,-4.146757125854491299e+00,-1.000776290893554910e+00,-9.390058517456056464e+00,-6.599426269531250000e+00,-1.449584960937500000e-01,-4.577636718750000000e-02
6.511439442634582520e+01,-4.146757125854491299e+00,-1.089361786842346191e+00,-9.536105155944824219e+00,-1.388549804687500000e+00,-1.449584960937500000e-01,-4.577636718750000000e-02
6.512965178489685059e+01,-4.146757125854491299e+00,-1.089361786842346191e+00,-9.536105155944824219e+00,-1.388549804687500000e+00,1.457214355468750000e+00,-1.495361328125000000e+00
6.514141058921813965e+01,-3.873818397521972656e+00,-1.027112483978271706e+00,-9.169792175292966974e+00,-1.388549804687500000e+00,1.457214355468750000e+00,-1.495361328125000000e+00
6.515727567672729492e+01,-3.873818397521972656e+00,-1.027112483978271706e+00,-9.169792175292966974e+00,-1.373291015625000000e+00,-1.304626464843750000e+00,4.112243652343750000e+00
6.517180061340332031e+01,-5.434837818145751953e+00,-1.027112483978271706e+00,-9.169792175292966974e+00,-1.373291015625000000e+00,-1.304626464843750000e+00,4.112243652343750000e+00
6.518363904953002930e+01,-5.434837818145751953e+00,-8.020575642585754395e-01,-8.664615631103517401e+00,-1.373291015625000000e+00,7.324218750000000000e-01,-3.578186035156250000e+00
6.519829249382019043e+01,-3.804386377334594282e+00,-8.020575642585754395e-01,-8.664615631103517401e+00,-5.447387695312500000e+00,7.324218750000000000e-01,-3.578186035156250000e+00
6.521101975440979004e+01,-3.804386377334594282e+00,-1.086967587471008301e+00,-9.459490776062011719e+00,-5.447387695312500000e+00,-1.373291015625000000e-01,5.043029785156250000e+00
6.522578668594360352e+01,-4.568136692047119141e+00,-1.086967587471008301e+00,-9.459490776062011719e+00,-4.890441894531250000e+00,-3.890991210937500000e-01,5.043029785156250000e+00
6.523747658729553223e+01,-5.061342239379882812e+00,-1.086967587471008301e+00,-9.459490776062011719e+00,-4.890441894531250000e+00,-1.098632812500000000e+00,1.525878906250000000e-02
6.525503110885620117e+01,-5.061342239379882812e+00,-1.371877551078796387e+00,-1.026154804229736328e+01,-4.890441894531250000e+00,-1.098632812500000000e+00,-5.645751953125000000e-01
6.526625943183898926e+01,-3.950432777404785156e+00,-1.371877551078796387e+00,-1.026154804229736328e+01,-1.640319824218750000e+00,-3.051757812500000000e-01,-5.645751953125000000e-01
6.528048610687255859e+01,-3.950432777404785156e+00,-1.070208191871642844e+00,-9.107542991638183594e+00,-1.640319824218750000e+00,-1.144409179687500000e-01,7.553100585937500000e-01
6.529416584968566895e+01,-4.702211856842041016e+00,-1.070208191871642844e+00,-9.107542991638183594e+00,-2.845764160156250000e+00,-1.144409179687500000e-01,7.553100585937500000e-01
6.530703520774841309e+01,-4.702211856842041016e+00,-1.070208191871642844e+00,-9.107542991638183594e+00,-2.845764160156250000e+00,-1.144409179687500000e-01,5.798339843750000000e-01
6.532225179672241211e+01,-4.661510467529296875e+00,-8.331821560859680176e-01,-8.597578048706054688e+00,-2.845764160156250000e+00,-9.918212890625000000e-01,-6.866455078125000000e-01
6.533619284629821777e+01,-4.185064315795897549e+00,-8.331821560859680176e-01,-8.597578048706054688e+00,-4.531860351562500000e+00,4.577636718750000000e-02,-6.866455078125000000e-01
6.534928250312805176e+01,-4.074931144714356357e+00,-8.643068075180053711e-01,-9.342174530029296875e+00,-4.531860351562500000e+00,4.577636718750000000e-02,-3.128051757812500000e-01
6.536149263381958008e+01,-4.074931144714356357e+00,-8.643068075180053711e-01,-9.342174530029296875e+00,-4.531860351562500000e+00,4.577636718750000000e-02,2.220153808593750000e+00
6.537823891639709473e+01,-4.484339714050292969e+00,-8.643068075180053711e-01,-9.342174530029296875e+00,-4.051208496093750000e+00,-1.197814941406250000e+00,2.220153808593750000e+00
6.539086747169494629e+01,-4.484339714050292969e+00,-1.228225469589233398e+00,-9.655815124511720526e+00,-4.508972167968750000e+00,-1.625061035156250000e+00,-6.790161132812500000e-01
6.540334367752075195e+01,-4.185064315795897549e+00,-1.228225469589233398e+00,-9.655815124511720526e+00,-4.051208496093750000e+00,-1.197814941406250000e+00,-9.689331054687500000e-01
6.542024517059326172e+01,-4.185064315795897549e+00,-1.041477680206298828e+00,-9.239224433898925781e+00,-4.508972167968750000e+00,-1.220703125000000000e+00,-6.790161132812500000e-01
6.543076205253601074e+01,-4.388571739196776456e+00,-1.041477680206298828e+00,-9.239224433898925781e+00,-3.082275390625000000e+00,4.501342773437500000e-01,9.460449218750000000e-01
6.544475221633911133e+01,-4.778826713562011719e+00,-1.003170490264892578e+00,-9.526528358459472656e+00,-3.082275390625000000e+00,-6.637573242187500000e-01,9.460449218750000000e-01
6.545912718772888184e+01,-4.778826713562011719e+00,-9.840168952941895641e-01,-9.526528358459472656e+00,-2.059936523437500000e+00,-6.637573242187500000e-01,-1.197814941406250000e+00
6.547216725349426270e+01,-4.249708175659180576e+00,-9.840168952941895641e-01,-9.239224433898925781e+00,-2.059936523437500000e+00,-6.637573242187500000e-01,-1.197814941406250000e+00
6.548739671707153320e+01,-4.249708175659180576e+00,-1.185129880905151367e+00,-9.239224433898925781e+00,-2.059936523437500000e+00,-5.874633789062500000e-01,6.179809570312500000e-01
6.550114369392395020e+01,-4.604049682617188388e+00,-1.185129880905151367e+00,-9.239224433898925781e+00,-2.845764160156250000e+00,-5.874633789062500000e-01,7.553100585937500000e-01
6.551362180709838867e+01,-4.604049682617188388e+00,-1.180341362953186035e+00,-9.425971984863279474e+00,-2.845764160156250000e+00,3.051757812500000000e-02,7.553100585937500000e-01
6.552610874176025391e+01,-4.261679172515868252e+00,-1.180341362953186035e+00,-9.418788909912109375e+00,-3.852844238281250000e+00,-1.754760742187500000e-01,3.814697265625000000e-01
6.554046106338500977e+01,-4.261679172515868252e+00,-1.180341362953186035e+00,-9.418788909912109375e+00,-3.852844238281250000e+00,-1.754760742187500000e-01,3.814697265625000000e-01
6.555246877670288086e+01,-4.647145271301269531e+00,-1.113303780555725098e+00,-9.246406555175779474e+00,-3.852844238281250000e+00,-2.441406250000000000e-01,1.182556152343750000e+00
6.556720542907714844e+01,-4.647145271301269531e+00,-1.113303780555725098e+00,-9.246406555175779474e+00,-4.142761230468750000e+00,-2.441406250000000000e-01,1.182556152343750000e+00
6.558245325088500977e+01,-4.307168960571288174e+00,-1.113303780555725098e+00,-9.392453193664550781e+00,-4.142761230468750000e+00,3.204345703125000000e-01,3.662109375000000000e-01
6.559451007843017578e+01,-4.307168960571288174e+00,-1.046266078948974609e+00,-9.524134635925292969e+00,-4.142761230468750000e+00,3.204345703125000000e-01,3.662109375000000000e-01
6.560981321334838867e+01,-4.398148536682128906e+00,-1.046266078948974609e+00,-9.524134635925292969e+00,-4.150390625000000000e+00,-5.340576171875000000e-01,3.662109375000000000e-01
6.562177395820617676e+01,-4.450820922851562500e+00,-1.113303780555725098e+00,-9.572018623352050781e+00,-4.150390625000000000e+00,-5.340576171875000000e-01,-6.103515625000000000e-02
6.563732910156250000e+01,-4.450820922851562500e+00,-1.113303780555725098e+00,-9.572018623352050781e+00,-3.234863281250000000e+00,-5.035400390625000000e-01,-6.103515625000000000e-02
6.565195322036743164e+01,-4.410119533538818359e+00,-8.882488012313842773e-01,-9.473855972290039062e+00,-3.234863281250000000e+00,-5.035400390625000000e-01,1.678466796875000000e-01
6.566434192657470703e+01,-4.410119533538818359e+00,-8.882488012313842773e-01,-9.473855972290039062e+00,-3.273010253906250000e+00,-5.035400390625000000e-01,1.678466796875000000e-01
6.567840337753295898e+01,-4.422090530395507812e+00,-8.882488012313842773e-01,-9.473855972290039062e+00,-3.273010253906250000e+00,1.754760742187500000e-01,9.918212890625000000e-02
6.569129180908203125e+01,-4.424484729766846591e+00,-8.188169598579406738e-01,-9.454702377319335938e+00,-3.273010253906250000e+00,1.754760742187500000e-01,9.918212890625000000e-02
6.570524144172668457e+01,-4.422090530395507812e+00,-8.188169598579406738e-01,-9.454702377319335938e+00,-4.028320312500000000e+00,-4.653930664062500000e-01,3.433227539062500000e-01
6.572051477432250977e+01,-4.563348293304443359e+00,-1.039083480834960938e+00,-9.579200744628906250e+00,-4.028320312500000000e+00,-4.653930664062500000e-01,3.433227539062500000e-01
6.573331403732299805e+01,-4.362235546112060547e+00,-1.039083480834960938e+00,-9.579200744628906250e+00,-2.929687500000000000e+00,-5.264282226562500000e-01,3.433227539062500000e-01
6.574727034568786621e+01,-4.388571739196776456e+00,-1.039083480834960938e+00,-9.579200744628906250e+00,-2.929687500000000000e+00,-6.408691406250000000e-01,4.425048828125000000e-01
6.576006937026977539e+01,-4.388571739196776456e+00,-1.046266078948974609e+00,-9.550470352172851562e+00,-2.960205078125000000e+00,-6.408691406250000000e-01,4.425048828125000000e-01
6.577494168281555176e+01,-4.541800498962402344e+00,-1.046266078948974609e+00,-9.550470352172851562e+00,-3.761291503906250000e+00,-6.408691406250000000e-01,2.365112304687500000e-01
6.579019641876220703e+01,-4.541800498962402344e+00,-1.046266078948974609e+00,-9.406818389892578125e+00,-3.761291503906250000e+00,-3.738403320312500000e-01,1.373291015625000000e-01
6.580208182334899902e+01,-4.400542736053466797e+00,-1.091755986213684082e+00,-9.406818389892578125e+00,-3.761291503906250000e+00,-3.738403320312500000e-01,2.365112304687500000e-01
6.581659460067749023e+01,-4.400542736053466797e+00,-1.091755986213684082e+00,-9.406818389892578125e+00,-3.196716308593750000e+00,-1.831054687500000000e-01,1.373291015625000000e-01
6.582835316658020020e+01,-4.400542736053466797e+00,-1.067813992500305176e+00,-9.373299598693847656e+00,-3.196716308593750000e+00,-1.831054687500000000e-01,1.373291015625000000e-01
6.584419631958007812e+01,-4.316745758056641513e+00,-1.067813992500305176e+00,-9.373299598693847656e+00,-3.463745117187500000e+00,-1.831054687500000000e-01,1.296997070312500000e-01
6.585629677772521973e+01,-4.316745758056641513e+00,-9.409212470054626465e-01,-9.373299598693847656e+00,-3.463745117187500000e+00,-4.882812500000000000e-01,1.296997070312500000e-01
6.587049770355224609e+01,-4.460397720336914062e+00,-1.012747287750243919e+00,-9.531316757202148438e+00,-3.463745117187500000e+00,-6.637573242187500000e-01,1.174926757812500000e+00
6.588605713844299316e+01,-4.489128112792968750e+00,-1.012747287750243919e+00,-9.531316757202148438e+00,-3.219604492187500000e+00,-6.637573242187500000e-01,1.174926757812500000e+00
6.589738011360168457e+01,-4.489128112792968750e+00,-1.012747287750243919e+00,-9.531316757202148438e+00,-3.219604492187500000e+00,-3.890991210937500000e-01,-5.340576171875000000e-01
6.591270804405212402e+01,-4.383783340454102451e+00,-9.840168952941895641e-01,-9.507374763488769531e+00,-3.219604492187500000e+00,-3.890991210937500000e-01,-5.340576171875000000e-01
6.592715620994567871e+01,-4.383783340454102451e+00,-9.840168952941895641e-01,-9.507374763488769531e+00,-3.211975097656250000e+00,-3.890991210937500000e-01,-7.629394531250000000e-02
6.593981242179870605e+01,-4.448426723480224609e+00,-9.840168952941895641e-01,-9.507374763488769531e+00,-4.028320312500000000e+00,7.629394531250000000e-03,8.392333984375000000e-01
6.595190453529357910e+01,-4.525041103363037109e+00,-1.019929885864257812e+00,-9.524134635925292969e+00,-3.135681152343750000e+00,7.629394531250000000e-03,3.814697265625000000e-01
6.596908664703369141e+01,-4.448426723480224609e+00,-9.026139974594116211e-01,-9.576807022094726562e+00,-3.746032714843750000e+00,-2.975463867187500000e-01,6.561279296875000000e-01
6.598175930976867676e+01,-4.405331134796143466e+00,-1.089361786842346191e+00,-9.576807022094726562e+00,-3.746032714843750000e+00,-2.975463867187500000e-01,3.814697265625000000e-01
6.599356842041015625e+01,-4.383783340454102451e+00,-9.409212470054626465e-01,-9.550470352172851562e+00,-3.746032714843750000e+00,-5.035400390625000000e-01,-4.959106445312500000e-01
6.601108169555664062e+01,-4.304774761199951172e+00,-1.063025593757629395e+00,-9.380481719970703125e+00,-3.540039062500000000e+00,-5.035400390625000000e-01,-4.959106445312500000e-01
6.602174377441406250e+01,-4.304774761199951172e+00,-1.063025593757629395e+00,-9.380481719970703125e+00,-3.540039062500000000e+00,-9.689331054687500000e-01,1.228332519531250000e+00
6.603564643859863281e+01,-4.383783340454102451e+00,-1.063025593757629395e+00,-9.598354339599609375e+00,-3.700256347656250000e+00,-9.689331054687500000e-01,1.228332519531250000e+00
6.605310964584350586e+01,-4.525041103363037109e+00,-1.039083480834960938e+00,-9.598354339599609375e+00,-3.700256347656250000e+00,-2.212524414062500000e-01,-6.713867187500000000e-01
6.606364917755126953e+01,-4.525041103363037109e+00,-1.039083480834960938e+00,-9.524134635925292969e+00,-3.700256347656250000e+00,-2.212524414062500000e-01,-6.713867187500000000e-01
6.607768201828002930e+01,-4.355052947998046875e+00,-1.079784989356994629e+00,-9.459490776062011719e+00,-3.288269042968750000e+00,-2.212524414062500000e-01,5.264282226562500000e-01
6.609216666221618652e+01,-4.355052947998046875e+00,-1.079784989356994629e+00,-9.459490776062011719e+00,-3.906250000000000000e+00,-2.212524414062500000e-01,5.264282226562500000e-01
6.610521292686462402e+01,-4.477157115936278409e+00,-9.864110946655272327e-01,-9.390058517456056464e+00,-3.440856933593750000e+00,-2.212524414062500000e-01,3.509521484375000000e-01
6.611700940132141113e+01,-4.477157115936278409e+00,-9.552864432334899902e-01,-9.390058517456056464e+00,-3.677368164062500000e+00,-5.950927734375000000e-01,3.509521484375000000e-01
6.613416075706481934e+01,-4.455609321594238281e+00,-9.552864432334899902e-01,-9.449913978576660156e+00,-3.677368164062500000e+00,-5.950927734375000000e-01,3.509521484375000000e-01
6.614434146881103516e+01,-4.410119533538818359e+00,-9.600748419761657715e-01,-9.449913978576660156e+00,-3.677368164062500000e+00,-3.433227539062500000e-01,-7.629394531250000000e-02
