# elapsed time, f1_acc_x, f1_acc_y, f1_acc_z, f1_gyro_x, f1_gyro_y, f1_gyro_z
4.372181248664855957e+01,-5.626373887062072754e-01,-8.690952301025388849e+00,-6.069301128387451172e+00,-3.578186035156250000e+00,-3.738403320312500000e-01,6.103515625000000000e-02
4.373709511756896973e+01,-5.626373887062072754e-01,-8.690952301025388849e+00,-6.054935932159423828e+00,-3.578186035156250000e+00,-4.653930664062500000e-01,6.866455078125000000e-02
4.374910354614257812e+01,-6.009446382522583008e-01,-8.690952301025388849e+00,-6.019022941589356357e+00,-3.639221191406250000e+00,-3.738403320312500000e-01,8.392333984375000000e-02
4.376387834548950195e+01,-6.296750307083129883e-01,-8.681375503540039062e+00,-6.019022941589356357e+00,-3.646850585937500000e+00,-2.593994140625000000e-01,8.392333984375000000e-02
4.377990627288818359e+01,-6.416460275650024414e-01,-8.681375503540039062e+00,-6.019022941589356357e+00,-3.639221191406250000e+00,-1.602172851562500000e-01,2.517700195312500000e-01
4.379093194007873535e+01,-6.871358752250671387e-01,-8.674192428588867188e+00,-5.980715751647949219e+00,-3.646850585937500000e+00,-1.449584960937500000e-01,2.517700195312500000e-01
4.380661296844482422e+01,-7.350199222564697266e-01,-8.674192428588867188e+00,-5.980715751647949219e+00,-3.631591796875000000e+00,-1.602172851562500000e-01,1.754760742187500000e-01
4.381789565086364746e+01,-7.350199222564697266e-01,-8.664615631103517401e+00,-5.975927352905272549e+00,-3.616333007812500000e+00,-1.525878906250000000e-01,6.866455078125000000e-02
4.383371257781982422e+01,-6.847416758537292480e-01,-8.655038833618164062e+00,-5.966350555419922763e+00,-3.616333007812500000e+00,-3.738403320312500000e-01,1.754760742187500000e-01
4.384567308425903320e+01,-6.847416758537292480e-01,-8.652645111083982599e+00,-5.966350555419922763e+00,-3.562927246093750000e+00,-3.814697265625000000e-01,7.629394531250000000e-02
4.386082148551940918e+01,-6.799532771110534668e-01,-8.640673637390138495e+00,-5.987898349761962891e+00,-3.547668457031250000e+00,-5.264282226562500000e-01,7.629394531250000000e-02
4.387456774711608887e+01,-6.799532771110534668e-01,-8.640673637390138495e+00,-5.987898349761962891e+00,-3.540039062500000000e+00,-5.645751953125000000e-01,-1.831054687500000000e-01
4.388787364959716797e+01,-6.799532771110534668e-01,-8.705317497253417969e+00,-5.901707172393798828e+00,-3.501892089843750000e+00,-5.645751953125000000e-01,-1.831054687500000000e-01
4.390215826034545898e+01,-6.392518281936645508e-01,-8.705317497253417969e+00,-5.901707172393798828e+00,-3.479003906250000000e+00,-4.272460937500000000e-01,-2.288818359375000000e-02
4.391669726371765137e+01,-6.392518281936645508e-01,-8.705317497253417969e+00,-5.980715751647949219e+00,-3.501892089843750000e+00,-3.814697265625000000e-01,-2.288818359375000000e-02
4.392978262901306152e+01,-6.057330369949340820e-01,-8.702922821044923651e+00,-5.990292549133300781e+00,-3.501892089843750000e+00,-3.814697265625000000e-01,-4.577636718750000000e-02
4.394080090522766113e+01,-5.434837937355041504e-01,-8.659827232360839844e+00,-5.999869346618652344e+00,-3.501892089843750000e+00,-3.738403320312500000e-01,-4.577636718750000000e-02
4.395864367485046387e+01,-5.363011956214904785e-01,-8.623914718627929688e+00,-5.999869346618652344e+00,-3.509521484375000000e+00,-3.738403320312500000e-01,9.155273437500000000e-02
4.396945357322692871e+01,-5.363011956214904785e-01,-8.611943244934082031e+00,-6.021417140960692471e+00,-3.646850585937500000e+00,-8.392333984375000000e-02,1.449584960937500000e-01
4.398349738121032715e+01,-6.153098344802856445e-01,-8.623914718627929688e+00,-6.021417140960692471e+00,-3.646850585937500000e+00,-8.392333984375000000e-02,1.831054687500000000e-01
4.399761295318603516e+01,-6.224924325942993164e-01,-8.652645111083982599e+00,-6.045359134674072266e+00,-3.631591796875000000e+00,-5.493164062500000000e-01,1.831054687500000000e-01
4.401056718826293945e+01,-6.823474764823913574e-01,-8.659827232360839844e+00,-6.098031520843505859e+00,-3.631591796875000000e+00,-5.493164062500000000e-01,1.296997070312500000e-01
4.402508592605590820e+01,-6.847416758537292480e-01,-8.659827232360839844e+00,-6.045359134674072266e+00,-3.662109375000000000e+00,-3.204345703125000000e-01,1.296997070312500000e-01
4.403971433639526367e+01,-7.134720683097839355e-01,-8.647856712341308594e+00,-6.076483726501464844e+00,-3.677368164062500000e+00,-2.517700195312500000e-01,9.918212890625000000e-02
4.405207991600036621e+01,-7.781155109405517578e-01,-8.635885238647460938e+00,-6.035782337188721591e+00,-3.662109375000000000e+00,-2.517700195312500000e-01,6.866455078125000000e-02
4.406425499916076660e+01,-7.781155109405517578e-01,-8.647856712341308594e+00,-5.990292549133300781e+00,-3.646850585937500000e+00,-4.196166992187500000e-01,3.051757812500000000e-02
4.408169579505920410e+01,-6.871358752250671387e-01,-8.662221908569335938e+00,-5.990292549133300781e+00,-3.623962402343750000e+00,-4.196166992187500000e-01,-9.918212890625000000e-02
4.409228444099426270e+01,-6.440402269363403320e-01,-8.662221908569335938e+00,-5.990292549133300781e+00,-3.623962402343750000e+00,-4.043579101562500000e-01,-9.918212890625000000e-02
4.410645174980163574e+01,-6.440402269363403320e-01,-8.690952301025388849e+00,-5.995080947875977451e+00,-3.623962402343750000e+00,-4.043579101562500000e-01,6.866455078125000000e-02
4.411818766593933105e+01,-6.200982332229614258e-01,-8.659827232360839844e+00,-5.990292549133300781e+00,-3.311157226562500000e+00,-4.882812500000000000e-01,6.866455078125000000e-02
4.413369464874267578e+01,-6.009446382522583008e-01,-8.619126319885253906e+00,-5.930437564849853516e+00,-3.265380859375000000e+00,-5.416870117187500000e-01,-8.392333984375000000e-02
4.414779448509216309e+01,-5.961562395095825195e-01,-8.607154846191406250e+00,-5.930437564849853516e+00,-3.166198730468750000e+00,-5.950927734375000000e-01,-8.392333984375000000e-02
4.416063380241394043e+01,-5.961562395095825195e-01,-8.599972724914549005e+00,-5.954379558563232422e+00,-3.158569335937500000e+00,-5.950927734375000000e-01,1.525878906250000000e-01
4.417489838600158691e+01,-5.961562395095825195e-01,-8.607154846191406250e+00,-5.954379558563232422e+00,-3.158569335937500000e+00,-5.035400390625000000e-01,2.212524414062500000e-01
4.418768358230590820e+01,-6.200982332229614258e-01,-8.705317497253417969e+00,-5.954379558563232422e+00,-3.158569335937500000e+00,-2.670288085937500000e-01,2.212524414062500000e-01
4.420212578773498535e+01,-5.793967843055725098e-01,-8.705317497253417969e+00,-6.035782337188721591e+00,-3.005981445312500000e+00,-5.035400390625000000e-01,1.831054687500000000e-01
4.421419358253479004e+01,-6.679822802543640137e-01,-8.566453933715820312e+00,-6.150703907012940341e+00,-3.005981445312500000e+00,-6.790161132812500000e-01,1.831054687500000000e-01
4.422960901260375977e+01,-6.727706789970397949e-01,-8.566453933715820312e+00,-6.150703907012940341e+00,-3.128051757812500000e+00,-6.790161132812500000e-01,2.441406250000000000e-01
4.424145817756652832e+01,-6.847416758537292480e-01,-8.588001251220701349e+00,-6.224924087524414062e+00,-3.402709960937500000e+00,-4.043579101562500000e-01,3.814697265625000000e-01
4.425684094429016113e+01,-7.757213115692138672e-01,-8.633491516113281250e+00,-6.095637321472167969e+00,-3.402709960937500000e+00,-4.043579101562500000e-01,3.814697265625000000e-01
4.427189373970031738e+01,-8.020575642585754395e-01,-8.707711219787597656e+00,-6.246472358703612393e+00,-3.509521484375000000e+00,-5.798339843750000000e-01,1.525878906250000000e-02
4.428283381462097168e+01,-8.020575642585754395e-01,-8.717288017272950995e+00,-6.095637321472167969e+00,-3.417968750000000000e+00,-6.484985351562500000e-01,-1.754760742187500000e-01
4.429842543601989746e+01,-7.493851184844970703e-01,-8.717288017272950995e+00,-6.023811340332031250e+00,-3.417968750000000000e+00,-7.019042968750000000e-01,-1.754760742187500000e-01
4.431043386459350586e+01,-6.488286256790161133e-01,-8.664615631103517401e+00,-5.973533153533936435e+00,-2.555847167968750000e+00,-1.098632812500000000e+00,-6.103515625000000000e-02
4.432545185089111328e+01,-6.488286256790161133e-01,-8.628703117370605469e+00,-5.925649166107177734e+00,-2.555847167968750000e+00,-1.098632812500000000e+00,3.814697265625000000e-02
4.434001660346984863e+01,-6.488286256790161133e-01,-8.628703117370605469e+00,-5.973533153533936435e+00,-2.593994140625000000e+00,-7.781982421875000000e-01,2.288818359375000000e-02
4.435219240188598633e+01,-6.488286256790161133e-01,-8.628703117370605469e+00,-6.026205539703369141e+00,-2.639770507812500000e+00,-7.705688476562500000e-01,3.814697265625000000e-02
4.436772751808166504e+01,-6.200982332229614258e-01,-8.659827232360839844e+00,-6.083666324615479404e+00,-2.639770507812500000e+00,-6.790161132812500000e-01,2.288818359375000000e-02
4.437969899177551270e+01,-6.488286256790161133e-01,-8.659827232360839844e+00,-6.248866558074951172e+00,-2.639770507812500000e+00,-3.814697265625000000e-01,-2.822875976562500000e-01
4.439495253562927246e+01,-7.398083209991455078e-01,-8.712499618530271661e+00,-6.248866558074951172e+00,-3.364562988281250000e+00,-3.814697265625000000e-01,-2.822875976562500000e-01
4.440617752075195312e+01,-7.398083209991455078e-01,-8.712499618530271661e+00,-6.165069103240967685e+00,-3.540039062500000000e+00,-3.509521484375000000e-01,-2.822875976562500000e-01
4.442089748382568359e+01,-6.847416758537292480e-01,-8.753201484680175781e+00,-6.165069103240967685e+00,-4.043579101562500000e+00,-3.509521484375000000e-01,-2.288818359375000000e-02
4.443323945999145508e+01,-6.847416758537292480e-01,-8.784325599670410156e+00,-6.165069103240967685e+00,-4.379272460937500000e+00,-1.907348632812500000e-01,4.882812500000000000e-01
4.444838714599609375e+01,-7.374141216278076172e-01,-8.753201484680175781e+00,-6.153098106384277344e+00,-4.631042480468750000e+00,-1.907348632812500000e-01,4.882812500000000000e-01
4.445979619026184082e+01,-7.374141216278076172e-01,-8.420407295227049005e+00,-5.844246387481689453e+00,-4.631042480468750000e+00,-1.907348632812500000e-01,-2.899169921875000000e-01
4.447504448890686035e+01,-4.812345206737517755e-01,-8.238448143005371094e+00,-5.535394191741943359e+00,-3.524780273437500000e+00,-7.858276367187500000e-01,-7.171630859375000000e-01
4.449055695533752441e+01,-3.136404156684875488e-01,-8.070854187011718750e+00,-5.535394191741943359e+00,-3.524780273437500000e+00,-8.316040039062500000e-01,-7.171630859375000000e-01
4.450464081764221191e+01,-3.136404156684875488e-01,-8.070854187011718750e+00,-5.535394191741943359e+00,-3.379821777343750000e+00,-7.858276367187500000e-01,1.106262207031250000e+00
4.451768398284912109e+01,-4.141968786716461182e-01,-8.413224220275878906e+00,-5.755661010742188388e+00,-3.898620605468750000e+00,-2.975463867187500000e-01,1.380920410156250000e+00
4.452933359146118164e+01,-5.410895943641662598e-01,-8.647856712341308594e+00,-5.889736175537108487e+00,-4.310607910156250000e+00,-1.220703125000000000e-01,1.380920410156250000e+00
4.454660463333129883e+01,-6.440402269363403320e-01,-8.698134422302246094e+00,-5.961562156677246094e+00,-4.310607910156250000e+00,-9.155273437500000000e-02,-4.577636718750000000e-02
4.455788803100585938e+01,-6.440402269363403320e-01,-8.698134422302246094e+00,-5.889736175537108487e+00,-3.471374511718750000e+00,-9.155273437500000000e-02,-1.373291015625000000e-01
4.457138586044311523e+01,-6.105214357376098633e-01,-8.645462036132812500e+00,-5.992686748504638672e+00,-3.471374511718750000e+00,-9.155273437500000000e-02,-4.730224609375000000e-01
4.458872222900390625e+01,-6.105214357376098633e-01,-8.609549522399902344e+00,-5.992686748504638672e+00,-3.486633300781250000e+00,-1.831054687500000000e-01,-4.730224609375000000e-01
4.460062646865844727e+01,-7.278373241424559437e-01,-8.609549522399902344e+00,-6.009446144104003906e+00,-3.486633300781250000e+00,-5.340576171875000000e-02,5.874633789062500000e-01
4.461292147636413574e+01,-7.278373241424559437e-01,-8.609549522399902344e+00,-6.105214118957520419e+00,-2.372741699218750000e+00,-2.517700195312500000e-01,5.874633789062500000e-01
4.462773942947387695e+01,-7.278373241424559437e-01,-8.827421188354492188e+00,-6.112396717071532315e+00,-2.372741699218750000e+00,-1.754760742187500000e-01,-9.155273437500000000e-02
4.464092659950256348e+01,-7.900865674018859863e-01,-8.827421188354492188e+00,-6.133944511413574219e+00,-2.578735351562500000e+00,-3.585815429687500000e-01,-9.155273437500000000e-02
4.465186691284179688e+01,-8.403647541999816895e-01,-8.743624687194824219e+00,-6.378153324127197266e+00,-2.647399902343750000e+00,-1.754760742187500000e-01,2.670288085937500000e-01
4.466972303390502930e+01,-8.403647541999816895e-01,-8.743624687194824219e+00,-6.181828498840332031e+00,-3.402709960937500000e+00,-1.144409179687500000e-01,2.670288085937500000e-01
4.468207311630249023e+01,-1.063025593757629395e+00,-8.743624687194824219e+00,-6.181828498840332031e+00,-3.402709960937500000e+00,-1.144409179687500000e-01,-5.569458007812500000e-01
4.469423437118530273e+01,-1.063025593757629395e+00,-8.712499618530271661e+00,-6.112396717071532315e+00,-3.402709960937500000e+00,-2.441406250000000000e-01,-7.858276367187500000e-01
4.471173000335693359e+01,-6.536170244216918945e-01,-8.638279914855957031e+00,-6.016628742218017578e+00,-2.700805664062500000e+00,-5.035400390625000000e-01,-7.858276367187500000e-01
4.472282695770263672e+01,-3.998316824436187744e-01,-8.638279914855957031e+00,-5.712564945220947266e+00,-2.731323242187500000e+00,-5.035400390625000000e-01,-5.111694335937500000e-01
4.473578047752380371e+01,-3.998316824436187744e-01,-8.638279914855957031e+00,-5.712564945220947266e+00,-2.731323242187500000e+00,-5.035400390625000000e-01,8.392333984375000000e-01
4.475094342231750488e+01,-5.003881454467773438e-01,-8.884881973266601562e+00,-5.904101371765137607e+00,-3.791809082031250000e+00,-5.111694335937500000e-01,8.392333984375000000e-01
4.476314353942871094e+01,-8.116343617439270020e-01,-8.884881973266601562e+00,-5.904101371765137607e+00,-3.791809082031250000e+00,-5.111694335937500000e-01,3.433227539062500000e-01
4.477572393417358398e+01,-8.116343617439270020e-01,-8.767566680908201349e+00,-5.904101371765137607e+00,-3.791809082031250000e+00,-7.019042968750000000e-01,6.103515625000000000e-02
4.479033565521240234e+01,-4.548983275890349787e-01,-8.767566680908201349e+00,-5.844246387481689453e+00,-2.418518066406250000e+00,-7.019042968750000000e-01,-2.365112304687500000e-01
4.480270791053771973e+01,-3.615244626998900812e-01,-8.767566680908201349e+00,-5.758055210113525391e+00,-3.883361816406250000e+00,-4.882812500000000000e-01,-6.637573242187500000e-01
4.481720781326293945e+01,-3.615244626998900812e-01,-8.707711219787597656e+00,-5.758055210113525391e+00,-2.418518066406250000e+00,5.645751953125000000e-01,-6.637573242187500000e-01
4.482928729057312012e+01,-4.525041282176970880e-01,-8.523358345031736505e+00,-5.446808815002441406e+00,-3.883361816406250000e+00,5.645751953125000000e-01,1.594543457031250000e+00
4.484468221664428711e+01,-6.655880808830261230e-01,-8.523358345031736505e+00,-6.131550312042236328e+00,-3.517150878906250000e+00,2.288818359375000000e-02,1.594543457031250000e+00
4.485884928703308105e+01,-7.829039692878723145e-01,-8.925583839416503906e+00,-5.997475147247314453e+00,-5.111694335937500000e+00,-4.577636718750000000e-02,4.959106445312500000e-01
4.487191176414489746e+01,-8.236053586006164551e-01,-8.925583839416503906e+00,-6.303933143615722656e+00,-3.517150878906250000e+00,-5.950927734375000000e-01,4.730224609375000000e-01
4.488606166839599609e+01,-7.829039692878723145e-01,-8.398859024047853339e+00,-5.997475147247314453e+00,-1.716613769531250000e+00,-1.182556152343750000e+00,1.907348632812500000e-01
4.489794659614562988e+01,-7.015010714530944824e-01,-8.166622161865232599e+00,-5.935225963592528409e+00,-1.716613769531250000e+00,-2.204895019531250000e+00,-1.052856445312500000e+00
4.491314959526062012e+01,-3.830722570419312079e-01,-8.166622161865232599e+00,-5.935225963592528409e+00,-2.182006835937500000e+00,-2.204895019531250000e+00,-1.052856445312500000e+00
4.492489790916442871e+01,-3.830722570419312079e-01,-8.470685005187986505e+00,-6.138732910156250000e+00,-3.875732421875000000e+00,-1.113891601562500000e+00,1.457214355468750000e+00
4.494077229499816895e+01,-6.440402269363403320e-01,-8.470685005187986505e+00,-6.138732910156250000e+00,-2.182006835937500000e+00,-1.113891601562500000e+00,1.457214355468750000e+00
4.495443511009216309e+01,-8.882488012313842773e-01,-8.470685005187986505e+00,-6.138732910156250000e+00,-4.623413085937500000e+00,-1.113891601562500000e+00,1.220703125000000000e+00
4.496782755851745605e+01,-8.882488012313842773e-01,-8.386888504028320312e+00,-5.839457988739013672e+00,-2.525329589843750000e+00,-1.777648925781250000e+00,-8.392333984375000000e-02
4.498227691650390625e+01,-4.118026793003082275e-01,-8.262390136718750000e+00,-6.186616897583007812e+00,-2.525329589843750000e+00,-1.396179199218750000e+00,-8.392333984375000000e-02
4.499432969093322754e+01,-1.125274747610092302e-01,-8.262390136718750000e+00,-6.186616897583007812e+00,-2.525329589843750000e+00,-1.396179199218750000e+00,1.380920410156250000e+00
4.500889277458190918e+01,-1.125274747610092302e-01,-8.750806808471679688e+00,-6.186616897583007812e+00,-2.822875976562500000e+00,6.027221679687500000e-01,1.426696777343750000e+00
4.502121925354003906e+01,-1.019929885864257812e+00,-8.817844390869140625e+00,-6.198587894439697266e+00,-2.822875976562500000e+00,6.027221679687500000e-01,2.616882324218750000e+00
4.503666687011718750e+01,-1.019929885864257812e+00,-8.817844390869140625e+00,-6.234500885009766513e+00,-2.822875976562500000e+00,-1.075744628906250000e+00,1.426696777343750000e+00
4.504882788658142090e+01,-5.386953949928283691e-01,-8.808267593383789062e+00,-6.234500885009766513e+00,-2.922058105468750000e+00,-1.075744628906250000e+00,-7.400512695312500000e-01
4.506360793113708496e+01,-4.429273009300231934e-01,-8.298302650451660156e+00,-5.238513469696044922e+00,-4.760742187500000000e+00,-2.822875976562500000e-01,-7.400512695312500000e-01
4.507820200920104980e+01,-4.740519225597382147e-01,-8.298302650451660156e+00,-5.238513469696044922e+00,-4.760742187500000000e+00,-2.822875976562500000e-01,3.364562988281250000e+00
4.509294438362121582e+01,-4.740519225597382147e-01,-8.298302650451660156e+00,-5.896918773651122159e+00,-3.997802734375000000e+00,-8.087158203125000000e-01,3.364562988281250000e+00
4.510548949241638184e+01,-1.077390789985656738e+00,-8.820239067077636719e+00,-5.896918773651122159e+00,-2.067565917968750000e+00,-1.686096191406250000e+00,3.189086914062500000e+00
4.511760258674621582e+01,-1.077390789985656738e+00,-8.820239067077636719e+00,-5.896918773651122159e+00,-9.155273437500000000e-01,-1.686096191406250000e+00,1.312255859375000000e+00
4.513468098640441895e+01,-6.799532771110534668e-01,-8.820239067077636719e+00,-5.815515995025634766e+00,-9.155273437500000000e-01,-1.571655273437500000e+00,3.509521484375000000e-01
4.514555954933166504e+01,-6.799532771110534668e-01,-8.240841865539549005e+00,-5.815515995025634766e+00,-1.396179199218750000e+00,-1.289367675781250000e+00,3.509521484375000000e-01
4.515979576110839844e+01,-6.799532771110534668e-01,-8.240841865539549005e+00,-5.815515995025634766e+00,-4.249572753906250000e+00,-9.689331054687500000e-01,1.136779785156250000e+00
4.517663693428039551e+01,-9.289502501487731934e-01,-8.583212852478027344e+00,-6.208164691925048828e+00,-4.249572753906250000e+00,-1.289367675781250000e+00,1.136779785156250000e+00
4.518732118606567383e+01,-6.464344263076782227e-01,-8.583212852478027344e+00,-6.208164691925048828e+00,-4.249572753906250000e+00,-2.487182617187500000e+00,-1.602172851562500000e-01
4.520157766342163086e+01,-5.386953949928283691e-01,-8.583212852478027344e+00,-5.925649166107177734e+00,-5.081176757812500000e+00,-2.487182617187500000e+00,-1.602172851562500000e-01
4.521573591232299805e+01,-3.734954595565795898e-01,-8.736441612243652344e+00,-5.925649166107177734e+00,-5.081176757812500000e+00,-2.540588378906250000e+00,1.083374023437500000e+00
4.522871398925781250e+01,-3.734954595565795898e-01,-8.820239067077636719e+00,-6.411672115325927734e+00,-7.934570312500000000e-01,-2.540588378906250000e+00,5.165100097656250000e+00
4.524050903320312500e+01,-3.902548849582672119e-01,-8.820239067077636719e+00,-6.411672115325927734e+00,-7.934570312500000000e-01,-4.249572753906250000e+00,5.165100097656250000e+00
4.525777578353881836e+01,-1.043871879577636719e+00,-8.712499618530271661e+00,-6.411672115325927734e+00,-2.632141113281250000e+00,-4.249572753906250000e+00,1.831054687500000000e+00
4.526853060722351074e+01,-1.043871879577636719e+00,-8.549694061279298651e+00,-5.717353343963622159e+00,-2.975463867187500000e+00,-3.868103027343750000e+00,1.831054687500000000e+00
4.528286123275756836e+01,-7.685387134552001953e-01,-8.712499618530271661e+00,-5.743690013885497159e+00,-2.975463867187500000e+00,-3.280639648437500000e+00,2.258300781250000000e+00
4.529669928550720215e+01,-7.685387134552001953e-01,-8.817844390869140625e+00,-5.743690013885497159e+00,-2.975463867187500000e+00,-3.868103027343750000e+00,3.189086914062500000e+00
4.530948400497436523e+01,-7.685387134552001953e-01,-8.817844390869140625e+00,-5.810727596282958984e+00,-2.975463867187500000e+00,-4.165649414062500000e+00,3.189086914062500000e+00
4.532065176963806152e+01,-9.050082564353943981e-01,-8.789113998413085938e+00,-5.810727596282958984e+00,-4.516601562500000000e+00,-4.165649414062500000e+00,2.403259277343750000e+00
4.533638143539428711e+01,-6.560112833976745605e-01,-8.789113998413085938e+00,-5.487510204315185547e+00,-4.516601562500000000e+00,1.914978027343750000e+00,2.403259277343750000e+00
4.535100793838500977e+01,-1.177947163581847922e+00,-8.789113998413085938e+00,-5.487510204315185547e+00,-2.929687500000000000e+00,1.914978027343750000e+00,6.759643554687500000e+00
4.536325764656066895e+01,-5.410895943641662598e-01,-8.961496353149414062e+00,-5.851428985595702237e+00,-2.929687500000000000e+00,-3.662109375000000000e+00,6.759643554687500000e+00
4.537876987457275391e+01,-9.313444495201111950e-01,-8.611943244934082031e+00,-5.937620162963867188e+00,-1.594543457031250000e+00,-3.990173339843750000e+00,4.074096679687500000e+00
4.539023804664611816e+01,-8.307879567146301270e-01,-9.095572471618652344e+00,-6.035782337188721591e+00,-2.822875976562500000e-01,-3.662109375000000000e+00,3.814697265625000000e+00
4.540495038032531738e+01,-8.307879567146301270e-01,-8.611943244934082031e+00,-6.035782337188721591e+00,-2.822875976562500000e-01,-2.792358398437500000e+00,1.525878906250000000e-01
4.541717767715454102e+01,-8.307879567146301270e-01,-8.580819129943847656e+00,-6.057330131530762607e+00,-2.822875976562500000e-01,1.144409179687500000e+00,-6.256103515625000000e-01
4.543243288993835449e+01,-5.434837937355041504e-01,-8.580819129943847656e+00,-5.746084213256835938e+00,1.983642578125000000e-01,1.144409179687500000e+00,-9.307861328125000000e-01
4.544716048240661621e+01,-7.182605266571044922e-01,-8.887276649475097656e+00,-6.186616897583007812e+00,1.983642578125000000e-01,-2.754211425781250000e+00,-9.307861328125000000e-01
4.545917844772338867e+01,-7.182605266571044922e-01,-8.887276649475097656e+00,-5.418078422546386719e+00,5.645751953125000000e-01,-3.295898437500000000e+00,-6.637573242187500000e-01
4.547477149963378906e+01,-8.116343617439270020e-01,-8.734047889709472656e+00,-5.640738964080810547e+00,-2.746582031250000000e-01,-2.754211425781250000e+00,-6.637573242187500000e-01
4.548586583137512207e+01,-8.116343617439270020e-01,-8.734047889709472656e+00,-5.640738964080810547e+00,-2.670288085937500000e-01,-3.295898437500000000e+00,1.045227050781250000e+00
4.550078201293945312e+01,-8.116343617439270020e-01,-8.925583839416503906e+00,-6.265625953674316406e+00,-2.670288085937500000e-01,-1.892089843750000000e+00,1.144409179687500000e+00
4.551288890838623047e+01,-7.062894701957702637e-01,-9.090784072875976562e+00,-6.265625953674316406e+00,-2.670288085937500000e-01,-4.577636718750000000e-02,1.144409179687500000e+00
4.552842950820922852e+01,-7.422025203704833984e-01,-8.925583839416503906e+00,-5.868188381195067471e+00,1.129150390625000000e+00,-4.577636718750000000e-02,1.144409179687500000e+00
4.554040980339050293e+01,-7.422025203704833984e-01,-8.796297073364257812e+00,-5.738901615142822266e+00,2.288818359375000000e-02,-1.640319824218750000e+00,2.479553222656250000e+00
4.555476188659667969e+01,-7.422025203704833984e-01,-8.796297073364257812e+00,-5.738901615142822266e+00,2.288818359375000000e-02,-1.640319824218750000e+00,2.479553222656250000e+00
4.557041692733764648e+01,-1.149216771125793679e+00,-8.999804496765136719e+00,-5.343858242034912109e+00,2.288818359375000000e-02,-1.640319824218750000e+00,2.479553222656250000e+00
4.558272862434387207e+01,-6.943184733390808105e-01,-8.999804496765136719e+00,-5.343858242034912109e+00,-4.577636718750000000e-01,-6.484985351562500000e-01,-9.536743164062500000e-01
4.559692931175231934e+01,-7.900865674018859863e-01,-8.810662269592285156e+00,-5.343858242034912109e+00,-4.577636718750000000e-01,-2.281188964843750000e+00,6.484985351562500000e-01
4.560888886451721191e+01,-6.943184733390808105e-01,-8.808267593383789062e+00,-5.839457988739013672e+00,-1.617431640625000000e+00,-2.075195312500000000e+00,6.484985351562500000e-01
4.562440586090087891e+01,-6.847416758537292480e-01,-8.810662269592285156e+00,-5.839457988739013672e+00,-1.945495605468750000e+00,-2.075195312500000000e+00,6.484985351562500000e-01
4.563644456863403320e+01,-6.847416758537292480e-01,-8.877699851989746094e+00,-5.839457988739013672e+00,-1.617431640625000000e+00,-2.075195312500000000e+00,2.365112304687500000e+00
4.565131545066833496e+01,-8.116343617439270020e-01,-8.877699851989746094e+00,-5.506663799285888672e+00,-8.239746093750000000e-01,-7.934570312500000000e-01,2.311706542968750000e+00
4.566325640678405762e+01,-8.116343617439270020e-01,-9.157821655273437500e+00,-5.664680957794189453e+00,-8.239746093750000000e-01,-7.934570312500000000e-01,2.311706542968750000e+00
4.567780280113220215e+01,-9.050082564353943981e-01,-8.463502883911132812e+00,-5.463568210601806641e+00,1.182556152343750000e+00,-7.934570312500000000e-01,2.311706542968750000e+00
4.569079017639160156e+01,-7.374141216278076172e-01,-9.133879661560060370e+00,-5.463568210601806641e+00,-3.089904785156250000e+00,-8.163452148437500000e-01,1.640319824218750000e+00
4.570544028282165527e+01,-9.050082564353943981e-01,-8.611943244934082031e+00,-5.463568210601806641e+00,-3.089904785156250000e+00,-3.471374511718750000e+00,5.271911621093750000e+00
4.571961688995361328e+01,-1.221042871475219505e+00,-8.611943244934082031e+00,-5.760449409484862393e+00,-3.089904785156250000e+00,-3.913879394531250000e+00,5.279541015625000000e+00
4.573303294181823730e+01,-1.221042871475219505e+00,-8.611943244934082031e+00,-5.760449409484862393e+00,-3.440856933593750000e+00,-3.913879394531250000e+00,5.279541015625000000e+00
4.574745059013366699e+01,-1.027112483978271706e+00,-8.611943244934082031e+00,-5.746084213256835938e+00,-2.006530761718750000e+00,-1.296997070312500000e+00,-3.128051757812500000e-01
4.576161074638366699e+01,-8.092401623725891113e-01,-8.817844390869140625e+00,-5.647921562194824219e+00,-2.487182617187500000e+00,-1.159667968750000000e+00,-9.460449218750000000e-01
4.577382373809814453e+01,-6.320692300796508789e-01,-8.817844390869140625e+00,-5.647921562194824219e+00,-2.487182617187500000e+00,-1.159667968750000000e+00,-3.128051757812500000e-01
4.578605961799621582e+01,-6.320692300796508789e-01,-8.817844390869140625e+00,-5.655104160308837891e+00,-4.714965820312500000e+00,-1.159667968750000000e+00,-3.814697265625000000e-02
4.580367636680603027e+01,-8.044517636299133301e-01,-8.480262756347656250e+00,-5.655104160308837891e+00,-5.126953125000000000e+00,-3.150939941406250000e+00,6.576538085937500000e+00
4.581449794769287109e+01,-1.089361786842346191e+00,-8.480262756347656250e+00,-5.963956356048583984e+00,-5.126953125000000000e+00,-3.684997558593750000e+00,6.942749023437500000e+00
4.582877135276794434e+01,-1.350329756736755371e+00,-8.401253700256347656e+00,-5.315127849578856534e+00,-5.126953125000000000e+00,-4.577636718750000000e+00,6.942749023437500000e+00
4.584260988235473633e+01,-1.350329756736755371e+00,-8.959102630615234375e+00,-5.963956356048583984e+00,-8.697509765625000000e+00,-4.577636718750000000e+00,6.942749023437500000e+00
4.585580253601074219e+01,-9.361328482627867542e-01,-8.001421928405763495e+00,-5.916072368621826172e+00,-3.143310546875000000e+00,3.128051757812500000e-01,-1.029968261718750000e+00
4.587052989006042480e+01,-8.092401623725891113e-01,-9.263166427612304688e+00,-5.916072368621826172e+00,-5.119323730468750000e+00,3.143310546875000000e+00,-5.180358886718750000e+00
4.588463640213012695e+01,-9.361328482627867542e-01,-8.501810073852539062e+00,-5.643133163452147549e+00,-5.119323730468750000e+00,3.128051757812500000e-01,-1.029968261718750000e+00
4.589762592315673828e+01,-1.094150185585021973e+00,-8.501810073852539062e+00,-5.643133163452147549e+00,-5.119323730468750000e+00,-9.231567382812500000e-01,1.724243164062500000e+00
4.590944838523864746e+01,-1.094150185585021973e+00,-8.501810073852539062e+00,-5.753266811370849609e+00,-7.537841796875000000e+00,-9.231567382812500000e-01,1.724243164062500000e+00
4.592662143707275391e+01,-1.103726983070373535e+00,-8.542511940002441406e+00,-5.753266811370849609e+00,-6.156921386718750000e+00,2.593994140625000000e-01,2.265930175781250000e+00
4.593725776672363281e+01,-1.000776290893554910e+00,-8.803479194641113281e+00,-5.650315761566162109e+00,-6.156921386718750000e+00,2.593994140625000000e-01,4.577636718750000000e-01
4.595132517814636230e+01,-1.074996590614318848e+00,-8.803479194641113281e+00,-5.650315761566162109e+00,-5.699157714843750000e+00,2.746582031250000000e-01,4.577636718750000000e-01
4.596307587623596191e+01,-1.074996590614318848e+00,-8.463502883911132812e+00,-5.650315761566162109e+00,-5.699157714843750000e+00,-1.373291015625000000e-01,6.866455078125000000e-02
4.597829627990722656e+01,-1.074996590614318848e+00,-8.463502883911132812e+00,-5.861005783081054688e+00,-8.537292480468750000e+00,-5.187988281250000000e-01,6.866455078125000000e-02
4.599388742446899414e+01,-1.221042871475219505e+00,-8.655038833618164062e+00,-5.901707172393798828e+00,-9.536743164062500000e+00,-5.187988281250000000e-01,9.765625000000000000e-01
4.600552916526794434e+01,-1.072602391242980957e+00,-8.655038833618164062e+00,-5.901707172393798828e+00,-8.537292480468750000e+00,1.976013183593750000e+00,9.765625000000000000e-01
4.601971364021301270e+01,-1.072602391242980957e+00,-9.040505409240724433e+00,-6.026205539703369141e+00,-1.086425781250000000e+01,1.976013183593750000e+00,-3.448486328125000000e+00
4.603259706497192383e+01,-1.072602391242980957e+00,-8.616731643676757812e+00,-5.743690013885497159e+00,-5.142211914062500000e+00,2.090454101562500000e+00,-3.715515136718750000e+00
4.604771947860717773e+01,-1.017535686492920144e+00,-9.040505409240724433e+00,-6.026205539703369141e+00,-1.318359375000000000e+01,2.090454101562500000e+00,-3.715515136718750000e+00
4.605968713760375977e+01,-8.619126081466674805e-01,-8.372523307800292969e+00,-5.494692802429199219e+00,-1.349639892578125000e+01,4.776000976562500000e+00,-9.254455566406250000e+00
4.607482481002807617e+01,-8.619126081466674805e-01,-9.081207275390623224e+00,-6.299144744873047763e+00,-1.349639892578125000e+01,4.776000976562500000e+00,-1.297760009765625000e+01
4.608902931213378906e+01,-8.619126081466674805e-01,-8.995016098022460938e+00,-6.584054470062255859e+00,-1.205444335937500000e+01,3.089904785156250000e+00,-9.254455566406250000e+00
4.610087203979492188e+01,-1.060631394386291504e+00,-8.995016098022460938e+00,-6.584054470062255859e+00,-7.736206054687500000e+00,-6.256103515625000000e-01,-2.784729003906250000e+00
4.611607289314270020e+01,-1.266532659530639648e+00,-8.995016098022460938e+00,-6.440402507781982422e+00,-2.655029296875000000e+00,-1.052856445312500000e+00,5.569458007812500000e-01
4.612835168838500977e+01,-1.450886249542236328e+00,-8.753201484680175781e+00,-5.736507415771483487e+00,2.288818359375000000e-02,-6.256103515625000000e-01,5.569458007812500000e-01
4.614364123344421387e+01,-1.266532659530639648e+00,-8.676587104797361505e+00,-5.959167957305907315e+00,-9.155273437500000000e-02,-4.882812500000000000e-01,-3.074645996093750000e+00
4.615537500381469727e+01,-1.223437070846557617e+00,-8.676587104797361505e+00,-5.863399982452392578e+00,2.288818359375000000e-02,5.950927734375000000e-01,-7.400512695312500000e+00
4.617001748085021973e+01,-5.171475410461425781e-01,-8.956707954406738281e+00,-5.863399982452392578e+00,1.487731933593750000e+00,5.950927734375000000e-01,-7.400512695312500000e+00
4.618496966361999512e+01,-5.171475410461425781e-01,-8.956707954406738281e+00,-5.863399982452392578e+00,1.487731933593750000e+00,4.425048828125000000e-01,-1.647949218750000000e+00
4.619782328605651855e+01,-5.051765441894531250e-01,-8.839392662048339844e+00,-5.499481201171875000e+00,4.409790039062500000e+00,-4.974365234375000000e+00,6.011962890625000000e+00
4.621196079254150391e+01,-6.871358752250671387e-01,-8.839392662048339844e+00,-6.155492305755615234e+00,-2.838134765625000000e+00,-4.974365234375000000e+00,6.011962890625000000e+00
4.622385144233703613e+01,-1.601720929145813210e+00,-8.159439086914062500e+00,-5.968744754791259766e+00,-3.753662109375000000e+00,-2.441406250000000000e+00,5.638122558593750000e+00
4.623927307128906250e+01,-1.601720929145813210e+00,-8.892065048217773438e+00,-6.155492305755615234e+00,-8.705139160156250000e+00,-8.697509765625000000e-01,2.449035644531250000e+00
4.625098371505737305e+01,-1.278503656387329102e+00,-8.288725852966308594e+00,-5.968744754791259766e+00,-4.173278808593750000e+00,4.302978515625000000e+00,-7.843017578125000000e+00
4.626614880561828613e+01,-1.115697979927062988e+00,-8.810662269592285156e+00,-5.954379558563232422e+00,-7.957458496093750000e+00,6.866455078125000000e+00,-1.148223876953125000e+01
4.627798914909362793e+01,-7.206547260284423828e-01,-8.810662269592285156e+00,-5.954379558563232422e+00,-4.173278808593750000e+00,6.866455078125000000e+00,-1.148223876953125000e+01
4.629374098777770996e+01,-7.206547260284423828e-01,-8.822632789611816406e+00,-6.272808551788330078e+00,-3.471374511718750000e+00,2.784729003906250000e+00,-6.263732910156250000e+00
4.630866956710815430e+01,-8.762778043746948242e-01,-8.822632789611816406e+00,-6.272808551788330078e+00,-3.021240234375000000e+00,-1.602172851562500000e-01,7.629394531250000000e-01
4.632036876678466797e+01,-9.361328482627867542e-01,-8.822632789611816406e+00,-6.816292285919189453e+00,-3.471374511718750000e+00,-3.257751464843750000e+00,1.497650146484375000e+01
4.633595085144042969e+01,-2.772485494613647461e+00,-8.896853446960449219e+00,-6.957550048828125000e+00,-1.279449462890625000e+01,-3.257751464843750000e+00,1.497650146484375000e+01
4.634966039657592773e+01,-2.772485494613647461e+00,-9.349357604980466974e+00,-6.957550048828125000e+00,-1.279449462890625000e+01,5.393981933593750000e+00,-9.674072265625000000e+00
4.636303496360778809e+01,-3.375824391841888428e-01,-9.349357604980466974e+00,-6.739677906036377841e+00,-7.339477539062500000e+00,5.393981933593750000e+00,-9.674072265625000000e+00
4.637411618232727051e+01,-2.154781520366668701e-01,-9.085995674133300781e+00,-6.160280704498291016e+00,-4.577636718750000000e-01,-1.319885253906250000e+00,3.890991210937500000e+00
4.639162206649780273e+01,-3.375824391841888428e-01,-8.904035568237304688e+00,-5.978321552276611328e+00,-4.577636718750000000e-01,-2.296447753906250000e+00,3.890991210937500000e+00
4.640282440185546875e+01,-1.084573388099670410e+00,-8.477868080139160156e+00,-5.978321552276611328e+00,-2.326965332031250000e+00,-2.296447753906250000e+00,3.402709960937500000e+00
4.641671252250671387e+01,-1.084573388099670410e+00,-8.738836288452146661e+00,-6.057330131530762607e+00,-2.326965332031250000e+00,-1.708984375000000000e+00,2.326965332031250000e+00
4.643370914459228516e+01,-1.108515381813049094e+00,-8.738836288452146661e+00,-6.057330131530762607e+00,-1.136779785156250000e+00,-1.708984375000000000e+00,2.326965332031250000e+00
4.644427227973937988e+01,-4.405331015586853027e-01,-8.757989883422853339e+00,-6.057330131530762607e+00,-1.136779785156250000e+00,-4.577636718750000000e+00,2.380371093750000000e+00
4.645867300033569336e+01,-4.405331015586853027e-01,-8.875305175781250000e+00,-6.098031520843505859e+00,-4.371643066406250000e+00,-6.950378417968750000e+00,2.462768554687500000e+01
4.647261786460876465e+01,-4.405331015586853027e-01,-8.757989883422853339e+00,-6.098031520843505859e+00,-1.497650146484375000e+01,-6.950378417968750000e+00,3.091430664062500000e+01
4.648488140106201172e+01,-3.043030261993408203e+00,-8.554482460021972656e+00,-6.098031520843505859e+00,-1.497650146484375000e+01,-6.034851074218750000e+00,3.091430664062500000e+01
4.649678134918212891e+01,-3.043030261993408203e+00,-8.362946510314941406e+00,-6.239289760589599609e+00,-1.387023925781250000e+01,1.123809814453125000e+01,-7.652282714843750000e+00
4.651466178894042969e+01,-1.491587638854980469e+00,-8.554482460021972656e+00,-6.524199485778808594e+00,-6.401062011718750000e+00,1.123809814453125000e+01,-7.652282714843750000e+00
4.652561330795288086e+01,-1.491587638854980469e+00,-8.456319808959960938e+00,-6.239289760589599609e+00,-3.059387207031250000e+00,5.950927734375000000e+00,-7.652282714843750000e+00
4.653927588462829590e+01,-1.491587638854980469e+00,-8.564059257507324219e+00,-6.600813865661621094e+00,-3.059387207031250000e+00,5.950927734375000000e+00,-4.745483398437500000e+00
4.655669879913330078e+01,-1.915361285209656039e-01,-9.593565940856933594e+00,-6.569689273834228516e+00,-3.059387207031250000e+00,5.950927734375000000e+00,-4.745483398437500000e+00
4.656874179840087891e+01,-1.915361285209656039e-01,-9.593565940856933594e+00,-6.569689273834228516e+00,-2.792358398437500000e+00,-2.792358398437500000e+00,1.869201660156250000e+01
4.658080863952636719e+01,-1.429338335990905762e+00,-8.920795440673828125e+00,-6.569689273834228516e+00,1.700592041015625000e+01,-6.347656250000000000e+00,1.869201660156250000e+01
4.659579277038574219e+01,-2.252943754196166992e+00,-7.211335182189941406e+00,-7.443572998046875000e+00,1.700592041015625000e+01,-9.765625000000000000e+00,6.469726562500000000e+00
4.660880899429321289e+01,-2.252943754196166992e+00,-6.852205276489257812e+00,-7.443572998046875000e+00,2.624511718750000000e+00,-9.765625000000000000e+00,-1.647949218750000000e+00
4.662061095237731934e+01,-1.438915252685546875e+00,-6.852205276489257812e+00,-7.738059997558593750e+00,-3.536987304687500000e+01,5.508422851562500000e+00,-1.647949218750000000e+00
4.663496112823486328e+01,-1.438915252685546875e+00,-7.491456985473632812e+00,-8.573636054992675781e+00,-3.536987304687500000e+01,5.508422851562500000e+00,-1.472473144531250000e+00
4.665036296844482422e+01,-1.381454348564147949e+00,-9.560047149658203125e+00,-9.885658264160156250e+00,-2.304840087890625000e+01,-6.103515625000000000e-01,-6.256103515625000000e-01
4.666251850128173828e+01,-1.381454348564147949e+00,-9.560047149658203125e+00,-9.885658264160156250e+00,-8.110046386718750000e+00,-7.476806640625000000e-01,2.990722656250000000e+00
4.667715001106262207e+01,-1.381454348564147949e+00,-8.664615631103517401e+00,-7.704540729522705078e+00,-8.110046386718750000e+00,-7.476806640625000000e-01,2.990722656250000000e+00
4.668928742408752441e+01,-1.142034173011779785e+00,-8.477868080139160156e+00,-4.927267074584960938e+00,-1.317596435546875000e+01,3.196716308593750000e+00,-1.098632812500000000e+01
4.670487880706787109e+01,-5.865793824195861816e-01,-8.190564155578611505e+00,-4.927267074584960938e+00,-1.317596435546875000e+01,1.120758056640625000e+01,-2.889251708984375000e+01
4.671610760688781738e+01,-2.394201699644327164e-03,-8.190564155578611505e+00,-4.927267074584960938e+00,-5.867004394531250000e+00,1.120758056640625000e+01,-2.889251708984375000e+01
4.673159027099609375e+01,-2.394201699644327164e-03,-8.346186637878417969e+00,-6.397306919097900391e+00,-5.867004394531250000e+00,1.091003417968750000e+00,-2.723693847656250000e+00
4.674600458145141602e+01,-1.604115068912506104e-01,-8.346186637878417969e+00,-4.814739704132080078e+00,-6.340026855468750000e+00,1.091003417968750000e+00,-2.723693847656250000e+00
4.675777697563171387e+01,-1.604115068912506104e-01,-8.631096839904785156e+00,-4.149151325225830078e+00,-6.340026855468750000e+00,7.652282714843750000e+00,-3.959655761718750000e+00
4.677319693565368652e+01,-1.604115068912506104e-01,-8.307879447937013495e+00,-4.149151325225830078e+00,1.023101806640625000e+01,7.652282714843750000e+00,-1.057434082031250000e+01
4.678507041931152344e+01,-1.915361359715461731e-02,-8.631096839904785156e+00,-5.628767967224121094e+00,1.204681396484375000e+01,7.652282714843750000e+00,-1.057434082031250000e+01
4.680008745193481445e+01,-1.259350061416625977e+00,-6.959944248199462891e+00,-9.373299598693847656e+00,3.231048583984375000e+01,5.752563476562500000e+00,-1.325988769531250000e+01
4.681609106063842773e+01,-4.462791919708251953e+00,-1.185608673095703303e+01,-1.186805725097656250e+01,2.180709838867187500e+02,1.033020019531250000e+01,-4.134368896484375000e+01
4.682783842086791992e+01,-5.054159641265869141e+00,-1.961330032348632812e+01,-1.186805725097656250e+01,2.180709838867187500e+02,-3.591156005859375000e+01,-7.112121582031250000e+01
4.684620118141174316e+01,-5.054159641265869141e+00,-1.961330032348632812e+01,-1.627578353881835938e+01,1.603469848632812500e+02,-3.591156005859375000e+01,-7.112121582031250000e+01
4.685759186744689941e+01,4.874594688415527344e+00,-3.830722570419311968e+00,6.895300745964050293e-01,1.977539062500000000e+01,-9.667205810546876421e+01,2.496337890625000000e+01
4.686954617500305176e+01,4.874594688415527344e+00,-3.629609823226928711e+00,-1.565568447113037287e+01,-7.898712158203125000e+01,-1.293182373046875000e+02,4.646301269531250000e+01
4.688111877441406250e+01,8.341398239135742188e+00,-2.667140722274780273e+00,-4.182670116424560547e+00,-7.898712158203125000e+01,-1.293182373046875000e+02,4.646301269531250000e+01
4.689629387855529785e+01,3.840299367904663086e+00,-1.608903527259826882e+00,-4.182670116424560547e+00,-4.877471923828125000e+01,-2.384185791015625000e+01,4.391479492187500000e+01
4.691093754768371582e+01,3.840299367904663086e+00,-1.608903527259826882e+00,-4.182670116424560547e+00,-4.351043701171875000e+01,-1.159667968750000000e+00,2.379608154296875000e+01
4.692295336723327637e+01,-3.687070608139038086e-01,-6.457161903381347656e+00,-4.922478675842285156e+00,-4.351043701171875000e+01,-1.159667968750000000e+00,2.379608154296875000e+01
4.693858790397644043e+01,-3.687070608139038086e-01,-6.457161903381347656e+00,-4.922478675842285156e+00,-4.351043701171875000e+01,-1.159667968750000000e+00,-5.775451660156250000e+00
4.695021367073059082e+01,-2.992752194404602051e-01,-6.457161903381347656e+00,-4.922478675842285156e+00,-2.178955078125000000e+01,-4.425048828125000000e-01,-7.049560546875000000e+00
4.696541500091552734e+01,8.667010068893432617e-01,-8.379705429077146661e+00,-3.078943252563477007e+00,-2.178955078125000000e+01,-4.425048828125000000e-01,-7.049560546875000000e+00
4.697972083091735840e+01,-2.992752194404602051e-01,-8.832209587097167969e+00,-5.097255229949951172e+00,-4.272460937500000000e-01,7.247924804687500000e-01,-2.334594726562500000e+00
4.699180889129638672e+01,3.112462162971497137e-01,-8.609549522399902344e+00,-3.078943252563477007e+00,-4.272460937500000000e-01,7.247924804687500000e-01,-2.334594726562500000e+00
4.700735783576965332e+01,3.112462162971497137e-01,-8.832209587097167969e+00,-5.097255229949951172e+00,-4.272460937500000000e-01,1.853942871093750000e+00,-5.043029785156250000e+00
4.702163457870483398e+01,8.044517636299133301e-01,-8.609549522399902344e+00,-1.872265696525573508e+00,3.974914550781250000e+00,-3.738403320312500000e-01,-5.043029785156250000e+00
4.703398370742797852e+01,8.044517636299133301e-01,-1.019451045989990234e+01,-5.750872611999512607e+00,3.974914550781250000e+00,1.853942871093750000e+00,-1.213073730468750000e+00
4.704653811454772949e+01,-1.419761538505554199e+00,-9.844957351684570312e+00,-3.797203779220581055e+00,4.066467285156250000e+00,3.166198730468750000e+00,-1.213073730468750000e+00
4.706372690200805664e+01,-1.419761538505554199e+00,-1.019451045989990234e+01,-5.453991413116455078e+00,-6.767272949218750000e+00,3.166198730468750000e+00,-1.213073730468750000e+00
4.707468295097351074e+01,-1.161187767982482910e+00,-9.844957351684570312e+00,-3.797203779220581055e+00,4.066467285156250000e+00,3.166198730468750000e+00,-5.065917968750000000e+00
4.708787131309509277e+01,-3.495534360408782959e-01,-1.022084712982177557e+01,-4.316745758056641513e+00,-6.767272949218750000e+00,-1.358032226562500000e+00,2.616882324218750000e+00
4.710561680793762207e+01,-1.058237075805664062e+00,-1.040520000457763672e+01,-4.316745758056641513e+00,4.302978515625000000e+00,2.700805664062500000e+00,-6.866455078125000000e-01
4.711621403694152832e+01,-1.058237075805664062e+00,-1.040520000457763672e+01,-4.316745758056641513e+00,-4.280090332031250000e+00,-1.358032226562500000e+00,2.616882324218750000e+00
4.713091850280761719e+01,-1.058237075805664062e+00,-9.885658264160156250e+00,-5.403713226318358487e+00,-4.280090332031250000e+00,-1.434326171875000000e+00,-6.866455078125000000e-01
4.714474916458129883e+01,-7.158662676811218262e-01,-9.825803756713867188e+00,-3.440467834472655806e+00,-4.280090332031250000e+00,-1.434326171875000000e+00,-3.738403320312500000e-01
4.715671849250793457e+01,-7.158662676811218262e-01,-9.885658264160156250e+00,-4.812345504760742188e+00,-5.523681640625000000e+00,7.858276367187500000e-01,-3.738403320312500000e-01
4.716886973381042480e+01,-9.074024558067321777e-01,-9.825803756713867188e+00,-4.362235546112060547e+00,2.670288085937500000e-01,7.858276367187500000e-01,2.136230468750000000e-01
4.718656325340270996e+01,-1.170764565467834473e+00,-9.315838813781738281e+00,-4.362235546112060547e+00,-4.669189453125000000e+00,7.858276367187500000e-01,2.136230468750000000e-01
4.719964003562927246e+01,-1.170764565467834473e+00,-9.315838813781738281e+00,-4.362235546112060547e+00,-4.669189453125000000e+00,-1.350402832031250000e+00,-2.990722656250000000e+00
4.721181249618530273e+01,-4.213795065879821777e-01,-8.793902397155763495e+00,-4.153939723968506748e+00,-4.669189453125000000e+00,-2.975463867187500000e-01,-2.990722656250000000e+00
4.722880244255065918e+01,-4.213795065879821777e-01,-9.667786598205566406e+00,-4.833893299102783203e+00,-4.325866699218750000e+00,-2.975463867187500000e-01,3.890991210937500000e+00
4.723953771591186523e+01,-6.871358752250671387e-01,-9.667786598205566406e+00,-4.833893299102783203e+00,-4.325866699218750000e+00,-2.975463867187500000e-01,3.890991210937500000e+00
4.725285625457763672e+01,-6.871358752250671387e-01,-9.667786598205566406e+00,-4.833893299102783203e+00,-4.325866699218750000e+00,3.662109375000000000e-01,-1.510620117187500000e+00
4.726493716239929199e+01,-6.871358752250671387e-01,-9.974244117736816406e+00,-4.577713489532471591e+00,-7.804870605468750000e+00,-6.103515625000000000e-02,-1.510620117187500000e+00
4.728075432777404785e+01,-7.517793178558349609e-01,-9.926360130310060370e+00,-4.577713489532471591e+00,3.417968750000000000e+00,-6.103515625000000000e-02,2.990722656250000000e+00
4.729569458961486816e+01,-7.517793178558349609e-01,-9.926360130310060370e+00,-4.577713489532471591e+00,-9.017944335937500000e+00,-1.502990722656250000e+00,2.990722656250000000e+00
4.730786776542663574e+01,-6.081272363662719727e-01,-9.926360130310060370e+00,-5.396530628204346591e+00,-6.042480468750000000e+00,-1.502990722656250000e+00,-2.609252929687500000e+00
4.732190060615539551e+01,-2.561795711517333984e-01,-8.094796180725097656e+00,-2.554613113403320312e+00,-6.042480468750000000e+00,-1.472473144531250000e+00,-2.609252929687500000e+00
4.733475828170776367e+01,-2.561795711517333984e-01,-9.947907447814939630e+00,-5.659892559051513672e+00,-6.042480468750000000e+00,-1.472473144531250000e+00,6.103515625000000000e-02
4.734896421432495117e+01,-1.189918279647827148e+00,-9.947907447814939630e+00,-5.532999992370605469e+00,3.395080566406250000e+00,5.416870117187500000e-01,6.103515625000000000e-02
4.736178803443908691e+01,-1.189918279647827148e+00,-9.947907447814939630e+00,-5.532999992370605469e+00,-1.308441162109375000e+01,-1.251220703125000000e+00,6.103515625000000000e-02
4.737587857246398926e+01,-1.149216771125793679e+00,-8.621520042419433594e+00,-3.866635799407958984e+00,7.781982421875000000e-01,5.416870117187500000e-01,-1.091003417968750000e+00
4.738774132728576660e+01,-7.015010714530944824e-01,-8.621520042419433594e+00,-3.854664564132689542e+00,7.781982421875000000e-01,3.738403320312500000e-01,6.408691406250000000e-01
4.740283203125000000e+01,-9.744400978088380016e-01,-9.186552047729492188e+00,-3.854664564132689542e+00,7.781982421875000000e-01,3.738403320312500000e-01,2.792358398437500000e+00
4.741567134857177734e+01,-7.015010714530944824e-01,-9.512163162231443536e+00,-3.854664564132689542e+00,-4.592895507812500000e+00,3.738403320312500000e-01,2.792358398437500000e+00
4.743074178695678711e+01,-9.744400978088380016e-01,-9.983820915222167969e+00,-5.133168220520020419e+00,-4.592895507812500000e+00,-9.307861328125000000e-01,-2.677917480468750000e+00
4.744285726547241211e+01,-6.631938815116882324e-01,-9.983820915222167969e+00,-3.718195199966431108e+00,-7.293701171875000000e+00,-3.356933593750000000e-01,-2.677917480468750000e+00
4.745896172523498535e+01,-6.631938815116882324e-01,-1.010113716125488281e+01,-5.858611583709717685e+00,-7.293701171875000000e+00,-9.307861328125000000e-01,5.950927734375000000e-01
4.747291350364685059e+01,-6.631938815116882324e-01,-8.010998725891111505e+00,-2.770091295242309570e+00,-7.293701171875000000e+00,-3.356933593750000000e-01,5.950927734375000000e-01
4.748402929306030273e+01,-1.051054477691650391e+00,-8.147468566894531250e+00,-3.090914249420166016e+00,-1.066589355468750000e+01,1.144409179687500000e-01,-1.167297363281250000e+00
4.749922204017639160e+01,-1.051054477691650391e+00,-8.147468566894531250e+00,-3.090914249420166016e+00,6.515502929687500000e+00,1.144409179687500000e-01,-1.167297363281250000e+00
4.751161050796508789e+01,-8.427590131759643555e-01,-8.147468566894531250e+00,-3.090914249420166016e+00,-6.744384765625000000e+00,-1.831054687500000000e-01,2.372741699218750000e+00
4.752623581886291504e+01,-8.427590131759643555e-01,-1.114022064208984375e+01,-6.162674903869628906e+00,-6.744384765625000000e+00,-1.831054687500000000e-01,2.372741699218750000e+00
4.754079627990722656e+01,-1.350329756736755371e+00,-9.514557838439939630e+00,-4.539406299591064453e+00,-6.744384765625000000e+00,9.307861328125000000e-01,-1.411437988281250000e+00
4.755296301841735840e+01,-1.350329756736755371e+00,-9.514557838439939630e+00,-4.539406299591064453e+00,-8.377075195312500000e+00,9.307861328125000000e-01,-1.411437988281250000e+00
4.757068657875061035e+01,-1.747767180204391479e-01,-9.514557838439939630e+00,-3.696647405624389648e+00,-8.682250976562500000e+00,9.307861328125000000e-01,-2.510070800781250000e+00
4.758166408538818359e+01,-1.747767180204391479e-01,-9.756371498107910156e+00,-3.696647405624389648e+00,-8.682250976562500000e+00,1.716613769531250000e+00,-1.983642578125000000e-01
4.759478092193603516e+01,-1.508347034454345703e+00,-9.756371498107910156e+00,-4.374206542968750000e+00,-4.440307617187500000e+00,1.716613769531250000e+00,3.715515136718750000e+00
4.760980176925659180e+01,-1.508347034454345703e+00,-1.001494598388672053e+01,-4.374206542968750000e+00,-4.440307617187500000e+00,3.204345703125000000e-01,3.715515136718750000e+00
4.762166166305541992e+01,-3.423708379268646240e-01,-9.696516990661619317e+00,-4.374206542968750000e+00,-4.440307617187500000e+00,3.204345703125000000e-01,6.866455078125000000e-02
4.763761162757873535e+01,-3.423708379268646240e-01,-9.696516990661619317e+00,-4.316745758056641513e+00,-8.125305175781250000e+00,3.204345703125000000e-01,6.866455078125000000e-02
4.765167164802551270e+01,-1.350329756736755371e+00,-9.696516990661619317e+00,-5.003881454467773438e+00,-8.125305175781250000e+00,1.525878906250000000e-01,6.866455078125000000e-02
4.766400170326232910e+01,-1.350329756736755371e+00,-8.619126319885253906e+00,-2.856282472610473633e+00,-8.125305175781250000e+00,1.525878906250000000e-01,-5.874633789062500000e-01
4.767599081993103027e+01,-5.985504388809204102e-01,-8.877699851989746094e+00,-3.624821424484252930e+00,-9.002685546875000000e+00,-3.662109375000000000e-01,-5.874633789062500000e-01
4.769362831115722656e+01,-3.663128614425659180e-01,-8.877699851989746094e+00,-3.624821424484252930e+00,-4.257202148437500000e+00,1.403808593750000000e+00,1.869201660156250000e+00
4.770436334609985352e+01,-5.985504388809204102e-01,-8.877699851989746094e+00,-3.624821424484252930e+00,-4.257202148437500000e+00,1.205444335937500000e+00,1.869201660156250000e+00
4.771793198585510254e+01,-1.316810965538024902e+00,-9.234436035156250000e+00,-3.952826976776123047e+00,-4.257202148437500000e+00,1.403808593750000000e+00,-3.189086914062500000e+00
4.773567652702331543e+01,-1.316810965538024902e+00,-9.234436035156250000e+00,-3.952826976776123047e+00,-3.372192382812500000e+00,1.205444335937500000e+00,-3.189086914062500000e+00
4.774576091766357422e+01,-7.948749661445617676e-01,-9.234436035156250000e+00,-3.952826976776123047e+00,-3.372192382812500000e+00,4.653930664062500000e-01,8.316040039062500000e-01
4.776020741462707520e+01,-7.948749661445617676e-01,-9.516951560974119317e+00,-4.802768707275391513e+00,-3.372192382812500000e+00,-1.945495605468750000e+00,8.316040039062500000e-01
4.777458047866821289e+01,-7.948749661445617676e-01,-9.516951560974119317e+00,-4.802768707275391513e+00,-7.476806640625000000e+00,-2.441406250000000000e-01,4.653930664062500000e-01
4.778800177574157715e+01,-3.016694188117980957e-01,-9.516951560974119317e+00,-4.802768707275391513e+00,-7.476806640625000000e+00,-2.441406250000000000e-01,-7.553100585937500000e-01
4.779884696006774902e+01,-3.016694188117980957e-01,-8.717288017272950995e+00,-4.680664062500000000e+00,-5.126953125000000000e+00,-2.441406250000000000e-01,-2.746582031250000000e-01
4.781680727005004883e+01,-3.830722570419312079e-01,-8.717288017272950995e+00,-4.680664062500000000e+00,-5.126953125000000000e+00,-1.113891601562500000e+00,-2.746582031250000000e-01
4.782939291000366211e+01,-7.254431247711181641e-01,-9.246406555175779474e+00,-4.680664062500000000e+00,-5.126953125000000000e+00,-1.113891601562500000e+00,-2.746582031250000000e-01
4.784104919433593750e+01,-7.254431247711181641e-01,-9.246406555175779474e+00,-3.916913986206055132e+00,-7.431030273437500000e+00,3.204345703125000000e-01,-1.777648925781250000e+00
4.785649991035461426e+01,-7.254431247711181641e-01,-9.246406555175779474e+00,-3.916913986206055132e+00,-7.431030273437500000e+00,3.204345703125000000e-01,-1.777648925781250000e+00
4.786866855621337891e+01,-1.101332753896713257e-01,-9.416395187377929688e+00,-4.180275917053223544e+00,-7.431030273437500000e+00,3.204345703125000000e-01,3.967285156250000000e-01
4.788304018974304199e+01,-1.101332753896713257e-01,-9.416395187377929688e+00,-5.051765441894531250e+00,-1.154327392578125000e+01,-3.501892089843750000e+00,2.311706542968750000e+00
4.789516091346740723e+01,-6.560112833976745605e-01,-9.416395187377929688e+00,-4.888959884643554688e+00,-1.154327392578125000e+01,-3.280639648437500000e-01,3.967285156250000000e-01
4.791050529479980469e+01,-6.751648783683776855e-01,-8.710105895996093750e+00,-4.888959884643554688e+00,-1.154327392578125000e+01,-3.280639648437500000e-01,-3.189086914062500000e+00
4.792514586448669434e+01,-6.751648783683776855e-01,-8.710105895996093750e+00,-3.574542999267578125e+00,-1.172637939453125000e+01,-3.280639648437500000e-01,-3.189086914062500000e+00
4.793704175949096680e+01,-6.751648783683776855e-01,-8.710105895996093750e+00,-3.574542999267578125e+00,-7.934570312500000000e+00,-4.196166992187500000e-01,3.738403320312500000e+00
4.795263004302978516e+01,-8.307879567146301270e-01,-9.713275909423828125e+00,-4.668693065643311435e+00,-7.934570312500000000e+00,-4.196166992187500000e-01,3.738403320312500000e+00
4.796442914009094238e+01,-1.019929885864257812e+00,-9.713275909423828125e+00,-4.668693065643311435e+00,-6.324768066406250000e+00,-4.196166992187500000e-01,-3.829956054687500000e+00
4.797907781600952148e+01,-1.019929885864257812e+00,-9.713275909423828125e+00,-4.668693065643311435e+00,-5.073547363281250000e+00,-1.213073730468750000e+00,-3.829956054687500000e+00
4.799169802665710449e+01,1.364694982767105103e-01,-1.106121158599853693e+01,-5.501875400543212891e+00,-5.966186523437500000e+00,-1.235961914062500000e+00,1.121520996093750000e+00
4.800632548332214355e+01,1.364694982767105103e-01,-1.106121158599853693e+01,-5.501875400543212891e+00,-5.073547363281250000e+00,-1.213073730468750000e+00,1.121520996093750000e+00
4.801877045631408691e+01,-2.025494575500488281e+00,-1.082179164886474609e+01,-5.501875400543212891e+00,-3.662109375000000000e+00,-1.235961914062500000e+00,-4.249572753906250000e+00
4.803330588340759277e+01,-2.025494575500488281e+00,-1.018493366241455078e+01,-4.635174274444580078e+00,-3.662109375000000000e+00,-1.533508300781250000e+00,-4.249572753906250000e+00
4.804781079292297363e+01,1.436520963907241821e-01,-1.018493366241455078e+01,-4.635174274444580078e+00,-3.662109375000000000e+00,-1.533508300781250000e+00,-7.324218750000000000e-01
4.806018948554992676e+01,1.436520963907241821e-01,-8.468291282653808594e+00,-4.053383350372314453e+00,-2.471923828125000000e+00,2.815246582031250000e+00,-7.324218750000000000e-01
4.807572674751281738e+01,-1.465251445770263672e+00,-8.468291282653808594e+00,-4.053383350372314453e+00,-2.471923828125000000e+00,2.815246582031250000e+00,-7.324218750000000000e-01
4.808686304092407227e+01,-1.465251445770263672e+00,-1.005804157257080078e+01,-4.709394454956054688e+00,-4.821777343750000000e+00,-4.119873046875000000e-01,1.861572265625000000e+00
4.810258221626281738e+01,-6.847416758537292480e-01,-1.005804157257080078e+01,-4.709394454956054688e+00,-4.821777343750000000e+00,-4.119873046875000000e-01,1.861572265625000000e+00
4.811384510993957520e+01,-6.847416758537292480e-01,-9.217676162719726562e+00,-5.396530628204346591e+00,-4.821777343750000000e+00,-4.119873046875000000e-01,1.716613769531250000e+00
4.812971329689025879e+01,-6.847416758537292480e-01,-9.217676162719726562e+00,-4.644751071929931641e+00,-1.001739501953125000e+01,-3.929138183593750000e+00,1.716613769531250000e+00
4.814448189735412598e+01,-8.643068075180053711e-01,-9.217676162719726562e+00,-4.644751071929931641e+00,-1.001739501953125000e+01,-3.929138183593750000e+00,1.716613769531250000e+00
4.815646052360534668e+01,-8.643068075180053711e-01,-8.573636054992675781e+00,-4.194641113281250000e+00,-1.206207275390625000e+01,-2.166748046875000000e+00,1.823425292968750000e+00
4.817171120643615723e+01,-8.643068075180053711e-01,-8.573636054992675781e+00,-4.194641113281250000e+00,-1.177215576171875000e+01,-1.838684082031250000e+00,-7.705688476562500000e-01
4.818383359909057617e+01,-2.968810200691223145e-01,-1.012747287750243963e+01,-4.448426723480224609e+00,-1.177215576171875000e+01,-1.838684082031250000e+00,-7.705688476562500000e-01
4.820068097114562988e+01,-2.968810200691223145e-01,-1.012747287750243963e+01,-4.448426723480224609e+00,-3.417968750000000000e+00,-5.340576171875000000e-01,-7.705688476562500000e-01
4.821195769309997559e+01,-8.236053586006164551e-01,-9.493009567260742188e+00,-3.481169223785400391e+00,-3.417968750000000000e+00,-5.340576171875000000e-01,2.159118652343750000e+00
4.822530913352966309e+01,-8.236053586006164551e-01,-9.493009567260742188e+00,-3.481169223785400391e+00,-3.417968750000000000e+00,-5.340576171875000000e-01,2.159118652343750000e+00
4.823974370956420898e+01,-7.326257228851318359e-01,-9.493009567260742188e+00,-3.481169223785400391e+00,-3.074645996093750000e+00,-1.968383789062500000e+00,1.670837402343750000e+00
4.825212502479553223e+01,-7.326257228851318359e-01,-8.664615631103517401e+00,-4.012681961059569424e+00,-5.264282226562500000e-01,5.950927734375000000e-01,-2.746582031250000000e-01
4.826770091056823730e+01,-7.326257228851318359e-01,-8.664615631103517401e+00,-4.012681961059569424e+00,-3.074645996093750000e+00,-1.968383789062500000e+00,-2.746582031250000000e-01
4.828160619735717773e+01,-5.339069962501525879e-01,-8.815450668334960938e+00,-4.012681961059569424e+00,-2.708435058593750000e+00,-2.098083496093750000e+00,-2.746582031250000000e-01
4.829490447044372559e+01,-4.309563040733337402e-01,-9.557653427124023438e+00,-4.616020679473876953e+00,-5.683898925781250000e+00,-2.098083496093750000e+00,3.128051757812500000e-01
4.830591917037963867e+01,-4.309563040733337402e-01,-9.557653427124023438e+00,-4.616020679473876953e+00,-2.708435058593750000e+00,6.179809570312500000e-01,3.128051757812500000e-01
4.832356786727905273e+01,-1.450886249542236328e+00,-9.557653427124023438e+00,-4.697423458099365234e+00,-2.563476562500000000e+00,6.179809570312500000e-01,-1.754760742187500000e-01
4.833441519737243652e+01,-1.450886249542236328e+00,-9.174580574035644531e+00,-4.697423458099365234e+00,-2.563476562500000000e+00,6.332397460937500000e-01,-1.640319824218750000e+00
4.834786057472229004e+01,-3.351882472634315491e-02,-9.174580574035644531e+00,-4.206612110137940341e+00,3.433227539062500000e-01,9.613037109375000000e-01,-1.640319824218750000e+00
4.836565637588500977e+01,-3.351882472634315491e-02,-9.244012832641601562e+00,-4.206612110137940341e+00,-6.835937500000000000e+00,9.613037109375000000e-01,2.136230468750000000e+00
4.837886095046997070e+01,-1.300051450729369895e+00,-9.373299598693847656e+00,-4.865017890930175781e+00,3.433227539062500000e-01,-8.087158203125000000e-01,2.136230468750000000e+00
4.839072299003601074e+01,-1.300051450729369895e+00,-9.373299598693847656e+00,-4.865017890930175781e+00,-6.835937500000000000e+00,-2.082824707031250000e+00,-2.250671386718750000e+00
4.840462779998779297e+01,-7.230489253997802734e-01,-9.373299598693847656e+00,-4.865017890930175781e+00,3.890991210937500000e-01,-2.082824707031250000e+00,-2.250671386718750000e+00
4.841694021224975586e+01,-1.197100803256034712e-01,-9.160215377807617188e+00,-3.921702384948730469e+00,-5.531311035156250000e+00,-1.235961914062500000e+00,-1.907348632812500000e-01
4.842967820167541504e+01,-1.197100803256034712e-01,-9.885658264160156250e+00,-5.542576789855957031e+00,-2.166748046875000000e+00,-7.629394531250000000e-02,9.841918945312500000e-01
4.844667935371398926e+01,-8.978255987167358398e-01,-8.844181060791015625e+00,-4.060565948486328125e+00,-5.531311035156250000e+00,1.296997070312500000e-01,9.841918945312500000e-01
4.845966887474060059e+01,-8.978255987167358398e-01,-9.629479408264160156e+00,-4.568136692047119141e+00,-5.043029785156250000e+00,1.296997070312500000e-01,-1.205444335937500000e+00
4.847184753417968750e+01,-7.038952708244323730e-01,-9.629479408264160156e+00,-4.390965938568115234e+00,-5.043029785156250000e+00,1.296997070312500000e-01,-1.205444335937500000e+00
4.848580789566040039e+01,-7.038952708244323730e-01,-9.629479408264160156e+00,-4.443638324737548828e+00,-5.043029785156250000e+00,3.967285156250000000e-01,-1.205444335937500000e+00
4.849792289733886719e+01,-1.089361786842346191e+00,-9.684545516967773438e+00,-4.390965938568115234e+00,-3.135681152343750000e+00,7.247924804687500000e-01,-1.571655273437500000e+00
4.851344084739685059e+01,-1.089361786842346191e+00,-9.684545516967773438e+00,-4.443638324737548828e+00,-6.958007812500000000e+00,7.247924804687500000e-01,-1.571655273437500000e+00
4.852513575553894043e+01,-9.696516990661619984e-01,-9.684545516967773438e+00,-4.261679172515868252e+00,-2.128601074218750000e+00,4.348754882812500000e-01,-6.713867187500000000e-01
4.854017949104309082e+01,-8.044517636299133301e-01,-9.090784072875976562e+00,-4.261679172515868252e+00,-5.958557128906250000e+00,-1.419067382812500000e+00,9.078979492187500000e-01
4.855547690391540527e+01,-8.044517636299133301e-01,-9.090784072875976562e+00,-4.261679172515868252e+00,-5.538940429687500000e+00,-1.419067382812500000e+00,9.078979492187500000e-01
4.856727194786071777e+01,-7.924807667732238770e-01,-8.738836288452146661e+00,-4.096478939056396484e+00,-5.538940429687500000e+00,-3.051757812500000000e-01,-9.918212890625000000e-02
4.858276939392089844e+01,-7.924807667732238770e-01,-9.782708168029783380e+00,-4.876988887786865234e+00,-5.538940429687500000e+00,-3.051757812500000000e-01,-9.918212890625000000e-02
4.859491896629333496e+01,-8.379705548286437988e-01,-9.782708168029783380e+00,-4.625597476959228516e+00,-7.324218750000000000e-01,2.105712890625000000e+00,-7.095336914062500000e-01
4.860995364189147949e+01,-1.024718284606933594e+00,-9.782708168029783380e+00,-4.876988887786865234e+00,-1.899719238281250000e+00,-7.247924804687500000e-01,5.874633789062500000e-01
4.862097334861755371e+01,-1.024718284606933594e+00,-9.275136947631835938e+00,-4.625597476959228516e+00,-1.899719238281250000e+00,1.518249511718750000e+00,-1.693725585937500000e+00
4.863637876510620117e+01,-5.219359397888183594e-01,-9.275136947631835938e+00,-4.879383087158203125e+00,-1.899719238281250000e+00,-7.247924804687500000e-01,5.874633789062500000e-01
4.865096163749694824e+01,-5.075707435607910156e-01,-9.275136947631835938e+00,-3.933673381805419922e+00,-3.814697265625000000e+00,4.577636718750000000e-01,1.884460449218750000e+00
4.866305351257324219e+01,-5.075707435607910156e-01,-9.332597732543943536e+00,-4.017470359802246094e+00,-3.814697265625000000e+00,4.577636718750000000e-01,1.884460449218750000e+00
4.867887830734252930e+01,-9.457096457481384277e-01,-9.332597732543943536e+00,-4.017470359802246094e+00,-3.814697265625000000e+00,4.577636718750000000e-01,2.441406250000000000e-01
4.868984961509704590e+01,-1.051054477691650391e+00,-9.332597732543943536e+00,-4.017470359802246094e+00,-1.678466796875000000e+00,-4.272460937500000000e-01,-1.091003417968750000e+00
4.870492744445800781e+01,-9.457096457481384277e-01,-9.074024200439453125e+00,-4.007893562316895419e+00,-1.678466796875000000e+00,-4.272460937500000000e-01,-7.019042968750000000e-01
4.872088646888732910e+01,-5.051765441894531250e-01,-9.074024200439453125e+00,-4.007893562316895419e+00,-4.310607910156250000e+00,-4.043579101562500000e-01,-7.019042968750000000e-01
4.873225545883178711e+01,-5.051765441894531250e-01,-9.074024200439453125e+00,-4.007893562316895419e+00,-4.310607910156250000e+00,2.212524414062500000e-01,-3.051757812500000000e-02
4.874740099906921387e+01,-8.236053586006164551e-01,-9.114726066589355469e+00,-4.558559894561768466e+00,-3.952026367187500000e+00,2.212524414062500000e-01,-3.051757812500000000e-02
4.875896573066711426e+01,-8.236053586006164551e-01,-9.114726066589355469e+00,-4.525041103363037109e+00,-3.952026367187500000e+00,-1.052856445312500000e+00,-4.730224609375000000e-01
4.877413558959960938e+01,-7.110778689384459339e-01,-9.114726066589355469e+00,-4.525041103363037109e+00,-3.952026367187500000e+00,-1.052856445312500000e+00,-4.730224609375000000e-01
4.878928303718566895e+01,-7.110778689384459339e-01,-9.102754592895507812e+00,-4.525041103363037109e+00,-4.081726074218750000e+00,-1.052856445312500000e+00,8.621215820312500000e-01
4.880112051963806152e+01,-9.768342971801757812e-01,-9.102754592895507812e+00,-4.321534156799316406e+00,-4.333496093750000000e+00,1.144409179687500000e-01,8.621215820312500000e-01
4.881661987304687500e+01,-9.768342971801757812e-01,-9.672574996948242188e+00,-4.709394454956054688e+00,-4.333496093750000000e+00,-6.637573242187500000e-01,4.577636718750000000e-02
4.883061051368713379e+01,-7.086836695671081543e-01,-9.672574996948242188e+00,-4.321534156799316406e+00,-4.577636718750000000e+00,2.212524414062500000e-01,-1.792907714843750000e+00
4.884294724464416504e+01,-7.086836695671081543e-01,-9.428365707397460938e+00,-4.168304920196533203e+00,-3.318786621093750000e+00,-6.637573242187500000e-01,4.577636718750000000e-02
4.885467290878295898e+01,-4.812345206737517755e-01,-9.428365707397460938e+00,-4.168304920196533203e+00,-2.319335937500000000e+00,-4.348754882812500000e-01,-9.307861328125000000e-01
4.887263751029968262e+01,-7.781155109405517578e-01,-9.428365707397460938e+00,-4.479551315307617188e+00,-2.319335937500000000e+00,-4.348754882812500000e-01,-9.307861328125000000e-01
4.888366150856018066e+01,-4.357447028160095215e-01,-9.327809333801269531e+00,-4.479551315307617188e+00,-2.326965332031250000e+00,-7.629394531250000000e-03,-9.307861328125000000e-01
4.889768171310424805e+01,-7.781155109405517578e-01,-9.069235801696775567e+00,-4.340687751770020419e+00,-3.677368164062500000e+00,-7.629394531250000000e-03,-1.678466796875000000e-01
4.891463732719421387e+01,-8.906430006027221680e-01,-9.069235801696775567e+00,-4.120420932769774502e+00,-4.028320312500000000e+00,-4.043579101562500000e-01,-3.814697265625000000e-02
4.892532515525817871e+01,-8.906430006027221680e-01,-9.284713745117187500e+00,-4.340687751770020419e+00,-4.028320312500000000e+00,-7.553100585937500000e-01,-6.866455078125000000e-02
4.893888282775878906e+01,-7.852981686592102051e-01,-9.502586364746093750e+00,-4.541800498962402344e+00,-4.028320312500000000e+00,-6.866455078125000000e-01,-3.814697265625000000e-02
4.895360827445983887e+01,-7.445967197418212891e-01,-9.514557838439939630e+00,-4.541800498962402344e+00,-3.791809082031250000e+00,-6.866455078125000000e-01,-6.866455078125000000e-02
4.896575975418090820e+01,-7.374141216278076172e-01,-9.581595420837402344e+00,-4.383783340454102451e+00,-4.112243652343750000e+00,-4.119873046875000000e-01,1.449584960937500000e-01
4.898108315467834473e+01,-7.038952708244323730e-01,-9.514557838439939630e+00,-4.367023944854736328e+00,-3.234863281250000000e+00,0.000000000000000000e+00,-2.212524414062500000e-01
4.899558329582214355e+01,-7.038952708244323730e-01,-9.447519302368164062e+00,-4.367023944854736328e+00,-3.303527832031250000e+00,-6.103515625000000000e-02,3.204345703125000000e-01
4.900874376296997070e+01,-8.810662031173706055e-01,-9.447519302368164062e+00,-4.276044368743896484e+00,-3.303527832031250000e+00,-6.103515625000000000e-02,-5.340576171875000000e-02
4.902045321464538574e+01,-9.097966551780699573e-01,-9.512163162231443536e+00,-4.276044368743896484e+00,-3.707885742187500000e+00,-3.814697265625000000e-01,3.662109375000000000e-01
4.903758955001831055e+01,-8.810662031173706055e-01,-9.512163162231443536e+00,-4.378994941711426669e+00,-3.967285156250000000e+00,-4.425048828125000000e-01,-5.340576171875000000e-02
4.904820775985717773e+01,-8.714894056320190430e-01,-9.605537414550779474e+00,-4.455609321594238281e+00,-3.707885742187500000e+00,-6.103515625000000000e-01,-2.975463867187500000e-01
4.906212043762207031e+01,-8.475474119186401367e-01,-9.478644371032716620e+00,-4.455609321594238281e+00,-3.395080566406250000e+00,-6.103515625000000000e-01,-2.975463867187500000e-01
4.907667231559753418e+01,-6.560112833976745605e-01,-9.414000511169433594e+00,-4.455609321594238281e+00,-3.395080566406250000e+00,-6.103515625000000000e-01,-1.525878906250000000e-01
4.908971714973449707e+01,-6.560112833976745605e-01,-9.306262016296386719e+00,-4.223371505737305576e+00,-2.998352050781250000e+00,-1.525878906250000000e-01,1.068115234375000000e-01
4.910093188285827637e+01,-7.134720683097839355e-01,-9.306262016296386719e+00,-4.223371505737305576e+00,-3.822326660156250000e+00,-1.525878906250000000e-01,6.561279296875000000e-01
4.911680626869201660e+01,-8.643068075180053711e-01,-9.361328125000000000e+00,-4.797980308532714844e+00,-3.822326660156250000e+00,-7.171630859375000000e-01,6.561279296875000000e-01
4.912822580337524414e+01,-8.643068075180053711e-01,-9.361328125000000000e+00,-4.797980308532714844e+00,-4.158020019531250000e+00,-7.171630859375000000e-01,-8.087158203125000000e-01
4.914375281333923340e+01,-9.074024558067321777e-01,-9.507374763488769531e+00,-4.405331134796143466e+00,-4.158020019531250000e+00,-1.525878906250000000e-01,-1.052856445312500000e+00
4.915807938575744629e+01,-7.661445140838623047e-01,-9.507374763488769531e+00,-4.405331134796143466e+00,-2.555847167968750000e+00,-1.525878906250000000e-01,-1.052856445312500000e+00
4.917023563385009766e+01,-7.661445140838623047e-01,-9.507374763488769531e+00,-4.405331134796143466e+00,-2.555847167968750000e+00,-9.307861328125000000e-01,5.569458007812500000e-01
4.918582415580749512e+01,-6.679822802543640137e-01,-9.334992408752439630e+00,-4.340687751770020419e+00,-3.677368164062500000e+00,-9.307861328125000000e-01,5.569458007812500000e-01
4.919780826568603516e+01,-6.679822802543640137e-01,-9.334992408752439630e+00,-4.340687751770020419e+00,-3.677368164062500000e+00,9.155273437500000000e-02,5.569458007812500000e-01
4.921202540397644043e+01,-8.140285611152648926e-01,-9.414000511169433594e+00,-4.285621166229248047e+00,-2.838134765625000000e+00,1.678466796875000000e-01,4.425048828125000000e-01
4.922402119636535645e+01,-9.074024558067321777e-01,-9.414000511169433594e+00,-4.285621166229248047e+00,-2.838134765625000000e+00,9.155273437500000000e-02,-5.798339843750000000e-01
4.923862838745117188e+01,-9.074024558067321777e-01,-9.414000511169433594e+00,-4.175487518310546875e+00,-2.838134765625000000e+00,-5.569458007812500000e-01,-5.798339843750000000e-01
4.925462913513183594e+01,-6.440402269363403320e-01,-9.318232536315917969e+00,-4.163516521453856534e+00,-3.341674804687500000e+00,-5.569458007812500000e-01,-5.798339843750000000e-01
4.926681447029113770e+01,-6.440402269363403320e-01,-9.255983352661132812e+00,-4.163516521453856534e+00,-3.341674804687500000e+00,-2.441406250000000000e-01,-4.043579101562500000e-01
4.928073096275329590e+01,-6.440402269363403320e-01,-9.255983352661132812e+00,-4.307168960571288174e+00,-3.433227539062500000e+00,-2.441406250000000000e-01,1.525878906250000000e-02
4.929369711875915527e+01,-7.781155109405517578e-01,-9.425971984863279474e+00,-4.328716754913330078e+00,-3.845214843750000000e+00,-6.942749023437500000e-01,1.525878906250000000e-02
4.930781483650207520e+01,-8.786720037460327148e-01,-9.425971984863279474e+00,-4.328716754913330078e+00,-3.433227539062500000e+00,-6.942749023437500000e-01,-7.629394531250000000e-02
4.931994199752807617e+01,-8.786720037460327148e-01,-9.425971984863279474e+00,-4.328716754913330078e+00,-2.861022949218750000e+00,-5.035400390625000000e-01,-5.416870117187500000e-01
4.933583903312683105e+01,-6.464344263076782227e-01,-9.215282440185546875e+00,-4.187458515167236328e+00,-2.861022949218750000e+00,-4.348754882812500000e-01,-5.416870117187500000e-01
4.934727025032043457e+01,-6.464344263076782227e-01,-9.416395187377929688e+00,-4.228159904479980469e+00,-4.020690917968750000e+00,-2.059936523437500000e-01,-1.754760742187500000e-01
4.936216711997985840e+01,-8.092401623725891113e-01,-9.416395187377929688e+00,-4.228159904479980469e+00,-4.020690917968750000e+00,-2.059936523437500000e-01,-1.754760742187500000e-01
4.937727379798889160e+01,-8.092401623725891113e-01,-9.531316757202148438e+00,-4.386177539825440341e+00,-3.433227539062500000e+00,-3.814697265625000000e-01,-5.493164062500000000e-01
4.938903021812438965e+01,-7.182605266571044922e-01,-9.531316757202148438e+00,-4.386177539825440341e+00,-3.189086914062500000e+00,-3.814697265625000000e-01,-5.493164062500000000e-01
4.940374803543090820e+01,-6.560112833976745605e-01,-9.519346237182617188e+00,-4.386177539825440341e+00,-3.189086914062500000e+00,-3.585815429687500000e-01,1.754760742187500000e-01
4.941622257232666016e+01,-6.560112833976745605e-01,-9.303867340087890625e+00,-4.297592163085937500e+00,-3.700256347656250000e+00,-3.585815429687500000e-01,2.670288085937500000e-01
4.943185496330261230e+01,-9.026139974594116211e-01,-9.421183586120603692e+00,-4.297592163085937500e+00,-3.700256347656250000e+00,-3.738403320312500000e-01,2.670288085937500000e-01
4.944303917884826660e+01,-9.217676520347596325e-01,-9.421183586120603692e+00,-4.297592163085937500e+00,-3.540039062500000000e+00,-4.959106445312500000e-01,2.670288085937500000e-01
4.945873498916625977e+01,-9.217676520347596325e-01,-9.421183586120603692e+00,-4.426878929138183594e+00,-3.440856933593750000e+00,-5.416870117187500000e-01,-4.501342773437500000e-01
4.947057676315307617e+01,-7.757213115692138672e-01,-9.363722801208496094e+00,-4.426878929138183594e+00,-3.540039062500000000e+00,-5.416870117187500000e-01,-4.501342773437500000e-01
4.948539757728576660e+01,-6.679822802543640137e-01,-9.363722801208496094e+00,-4.412513732910156250e+00,-3.540039062500000000e+00,-1.983642578125000000e-01,-3.509521484375000000e-01
4.950259518623352051e+01,-6.679822802543640137e-01,-9.447519302368164062e+00,-4.352658748626708984e+00,-3.540039062500000000e+00,-1.983642578125000000e-01,-2.746582031250000000e-01
4.951365518569946289e+01,-8.355763554573059082e-01,-9.481039047241212714e+00,-4.398148536682128906e+00,-3.417968750000000000e+00,-2.136230468750000000e-01,-3.280639648437500000e-01
4.952786970138549805e+01,-8.355763554573059082e-01,-9.481039047241212714e+00,-4.398148536682128906e+00,-3.417968750000000000e+00,-2.899169921875000000e-01,-2.899169921875000000e-01
4.954154181480407715e+01,-7.302315235137940563e-01,-9.481039047241212714e+00,-4.398148536682128906e+00,-3.417968750000000000e+00,-5.874633789062500000e-01,-2.899169921875000000e-01
4.955438137054443359e+01,-7.302315235137940563e-01,-9.320627212524414062e+00,-4.288015365600586826e+00,-3.486633300781250000e+00,-5.874633789062500000e-01,-2.899169921875000000e-01
4.956593847274780273e+01,-7.374141216278076172e-01,-9.320627212524414062e+00,-4.288015365600586826e+00,-3.486633300781250000e+00,-4.577636718750000000e-01,-1.449584960937500000e-01
4.958364629745483398e+01,-7.374141216278076172e-01,-9.493009567260742188e+00,-4.390965938568115234e+00,-3.486633300781250000e+00,-4.577636718750000000e-01,-1.678466796875000000e-01
