# elapsed time, f1_acc_x, f1_acc_y, f1_acc_z, f1_gyro_x, f1_gyro_y, f1_gyro_z
5.524147677421569824e+01,5.243301868438721591e+00,-5.920860767364502841e+00,5.521028995513916016e+00,-3.654479980468750000e+00,-2.670288085937500000e-01,7.858276367187500000e-01
5.525716853141784668e+01,5.255272865295410156e+00,-6.021417140960692471e+00,5.521028995513916016e+00,-3.715515136718750000e+00,-2.670288085937500000e-01,6.713867187500000000e-01
5.526916527748107910e+01,5.243301868438721591e+00,-5.920860767364502841e+00,5.556941986083983487e+00,-3.669738769531250000e+00,-2.670288085937500000e-01,6.713867187500000000e-01
5.528765249252319336e+01,5.255272865295410156e+00,-5.904101371765137607e+00,5.556941986083983487e+00,-3.715515136718750000e+00,-3.814697265625000000e-01,6.637573242187500000e-01
5.529789137840270996e+01,5.236118793487548828e+00,-5.904101371765137607e+00,5.554547786712647373e+00,-3.761291503906250000e+00,-3.814697265625000000e-01,4.806518554687500000e-01
5.531044197082519531e+01,5.305551052093505859e+00,-5.892130374908447266e+00,5.554547786712647373e+00,-3.761291503906250000e+00,-3.204345703125000000e-01,6.637573242187500000e-01
5.532548856735229492e+01,5.245696067810058594e+00,-5.892130374908447266e+00,5.487510204315185547e+00,-3.723144531250000000e+00,-3.204345703125000000e-01,5.722045898437500000e-01
5.533724761009216309e+01,5.248090267181396484e+00,-5.892130374908447266e+00,5.513846397399902344e+00,-3.700256347656250000e+00,-3.204345703125000000e-01,6.332397460937500000e-01
5.535248398780822754e+01,5.248090267181396484e+00,-5.904101371765137607e+00,5.513846397399902344e+00,-3.692626953125000000e+00,-3.280639648437500000e-01,6.179809570312500000e-01
5.536463761329650879e+01,5.288791656494141513e+00,-5.932831764221191406e+00,5.540182590484619141e+00,-3.677368164062500000e+00,-9.155273437500000000e-02,6.179809570312500000e-01
5.538010621070861816e+01,5.298368453979492188e+00,-5.918466567993164062e+00,5.564124584197998047e+00,-3.692626953125000000e+00,-4.806518554687500000e-01,5.798339843750000000e-01
5.539210319519042969e+01,5.298368453979492188e+00,-5.932831764221191406e+00,5.597643375396728516e+00,-3.677368164062500000e+00,-2.136230468750000000e-01,5.645751953125000000e-01
5.540711092948913574e+01,5.269638061523437500e+00,-5.985504150390625000e+00,5.597643375396728516e+00,-3.707885742187500000e+00,-2.593994140625000000e-01,5.645751953125000000e-01
5.542397379875183105e+01,5.269638061523437500e+00,-5.985504150390625000e+00,5.556941986083983487e+00,-3.570556640625000000e+00,-2.593994140625000000e-01,5.569458007812500000e-01
5.543454170227050781e+01,5.310339450836181641e+00,-5.872976779937744141e+00,5.544970989227294922e+00,-3.662109375000000000e+00,-2.593994140625000000e-01,5.569458007812500000e-01
5.544837069511413574e+01,5.310339450836181641e+00,-5.872976779937744141e+00,5.556941986083983487e+00,-3.517150878906250000e+00,-3.051757812500000000e-01,5.569458007812500000e-01
5.546312761306762695e+01,5.305551052093505859e+00,-5.990292549133300781e+00,5.544970989227294922e+00,-3.662109375000000000e+00,-2.975463867187500000e-01,6.332397460937500000e-01
5.547617840766906738e+01,5.298368453979492188e+00,-6.002263545989990234e+00,5.518634796142578125e+00,-3.463745117187500000e+00,-2.975463867187500000e-01,6.103515625000000000e-01
5.548817992210388184e+01,5.298368453979492188e+00,-5.990292549133300781e+00,5.518634796142578125e+00,-3.601074218750000000e+00,-2.670288085937500000e-01,6.103515625000000000e-01
5.550511598587036133e+01,5.298368453979492188e+00,-5.918466567993164062e+00,5.592854976654052734e+00,-3.440856933593750000e+00,-2.670288085937500000e-01,6.103515625000000000e-01
5.551586318016052246e+01,5.264849662780761719e+00,-5.894524574279785156e+00,5.621585369110106534e+00,-3.601074218750000000e+00,-2.670288085937500000e-01,6.790161132812500000e-01
5.552964138984680176e+01,5.209782600402832031e+00,-5.880159378051757812e+00,5.633556365966797763e+00,-3.440856933593750000e+00,-3.509521484375000000e-01,7.553100585937500000e-01
5.554700589179992676e+01,5.264849662780761719e+00,-5.863399982452392578e+00,5.633556365966797763e+00,-3.570556640625000000e+00,-3.738403320312500000e-01,7.553100585937500000e-01
5.555749297142028809e+01,5.264849662780761719e+00,-5.863399982452392578e+00,5.573701381683349609e+00,-3.440856933593750000e+00,-3.738403320312500000e-01,6.256103515625000000e-01
5.557151770591735840e+01,5.264849662780761719e+00,-5.987898349761962891e+00,5.573701381683349609e+00,-3.570556640625000000e+00,-3.280639648437500000e-01,6.179809570312500000e-01
5.558595967292785645e+01,5.245696067810058594e+00,-5.987898349761962891e+00,5.573701381683349609e+00,-3.654479980468750000e+00,-2.746582031250000000e-01,6.256103515625000000e-01
5.559855985641479492e+01,5.245696067810058594e+00,-5.987898349761962891e+00,5.588066577911376953e+00,-3.654479980468750000e+00,-3.280639648437500000e-01,6.179809570312500000e-01
5.561148190498352051e+01,5.272032260894775391e+00,-5.901707172393798828e+00,5.604825973510742188e+00,-3.654479980468750000e+00,-2.746582031250000000e-01,4.501342773437500000e-01
5.562788987159729004e+01,5.272032260894775391e+00,-5.992686748504638672e+00,5.645527362823486328e+00,-3.372192382812500000e+00,-2.441406250000000000e-01,2.899169921875000000e-01
5.563708376884460449e+01,5.272032260894775391e+00,-5.954379558563232422e+00,5.623979568481445312e+00,-3.684997558593750000e+00,-2.441406250000000000e-01,2.899169921875000000e-01
5.565268492698669434e+01,5.255272865295410156e+00,-5.954379558563232422e+00,5.623979568481445312e+00,-3.448486328125000000e+00,3.433227539062500000e-01,6.179809570312500000e-01
5.566716289520263672e+01,5.370194435119628906e+00,-5.944802761077880859e+00,5.623979568481445312e+00,-3.669738769531250000e+00,-2.899169921875000000e-01,6.179809570312500000e-01
5.568013548851013184e+01,5.398924827575683594e+00,-5.849034786224365234e+00,5.659892559051513672e+00,-3.540039062500000000e+00,-6.103515625000000000e-02,5.874633789062500000e-01
5.569112658500671387e+01,5.398924827575683594e+00,-5.849034786224365234e+00,5.734112739562987393e+00,-3.669738769531250000e+00,-6.103515625000000000e-02,5.874633789062500000e-01
5.570653891563415527e+01,5.303156852722167969e+00,-5.853823184967041016e+00,5.659892559051513672e+00,-3.684997558593750000e+00,3.814697265625000000e-02,8.163452148437500000e-01
5.572129750251770020e+01,5.188234806060791016e+00,-5.853823184967041016e+00,5.458779811859130859e+00,-3.684997558593750000e+00,3.814697265625000000e-02,8.316040039062500000e-01
5.573368120193481445e+01,5.188234806060791016e+00,-5.710170745849608487e+00,5.458779811859130859e+00,-3.654479980468750000e+00,3.814697265625000000e-02,8.316040039062500000e-01
5.574912858009338379e+01,5.188234806060791016e+00,-5.710170745849608487e+00,5.458779811859130859e+00,-3.654479980468750000e+00,-3.051757812500000000e-02,8.926391601562500000e-01
5.576074790954589844e+01,5.140350818634033203e+00,-5.710170745849608487e+00,5.391742229461669922e+00,-3.654479980468750000e+00,-4.043579101562500000e-01,8.926391601562500000e-01
5.577603816986083984e+01,5.140350818634033203e+00,-5.882553577423096591e+00,5.391742229461669922e+00,-3.250122070312500000e+00,-5.111694335937500000e-01,5.035400390625000000e-01
5.579027295112609863e+01,5.305551052093505859e+00,-5.793968200683593750e+00,5.442020416259766513e+00,-2.868652343750000000e+00,-1.365661621093750000e+00,9.918212890625000000e-02
5.580258822441101074e+01,5.327098846435546875e+00,-5.808333396911621094e+00,5.559336185455322266e+00,-2.868652343750000000e+00,-1.365661621093750000e+00,9.918212890625000000e-02
5.581827497482299805e+01,5.360617637634277344e+00,-5.808333396911621094e+00,5.573701381683349609e+00,-2.975463867187500000e+00,-1.365661621093750000e+00,7.858276367187500000e-01
5.582922315597534180e+01,5.363011837005615234e+00,-5.892130374908447266e+00,5.588066577911376953e+00,-3.280639648437500000e+00,-1.258850097656250000e+00,1.502990722656250000e+00
5.584481787681579590e+01,5.360617637634277344e+00,-5.949591159820557529e+00,5.588066577911376953e+00,-3.471374511718750000e+00,-1.678466796875000000e-01,1.502990722656250000e+00
5.585624885559082031e+01,5.334281444549560547e+00,-5.944802761077880859e+00,5.542576789855957031e+00,-3.601074218750000000e+00,-1.678466796875000000e-01,9.536743164062500000e-01
5.587212133407592773e+01,5.207388401031494141e+00,-5.944802761077880859e+00,5.465962409973144531e+00,-3.601074218750000000e+00,1.220703125000000000e-01,9.002685546875000000e-01
5.588616061210632324e+01,5.334281444549560547e+00,-5.614402770996093750e+00,5.501875400543212891e+00,-3.601074218750000000e+00,-6.484985351562500000e-01,8.850097656250000000e-01
5.589855837821960449e+01,5.480327606201171875e+00,-5.614402770996093750e+00,5.501875400543212891e+00,-3.837585449218750000e+00,4.577636718750000000e-02,9.002685546875000000e-01
5.591403675079345703e+01,5.480327606201171875e+00,-5.614402770996093750e+00,5.501875400543212891e+00,-3.837585449218750000e+00,-2.441406250000000000e-01,7.476806640625000000e-01
5.592567372322082520e+01,5.118803024291992188e+00,-5.803544998168945312e+00,5.549759387969971591e+00,-3.517150878906250000e+00,-2.441406250000000000e-01,8.239746093750000000e-01
5.594066286087036133e+01,5.118803024291992188e+00,-5.803544998168945312e+00,5.583278179168701172e+00,-3.517150878906250000e+00,-2.441406250000000000e-01,4.348754882812500000e-01
5.595255017280578613e+01,5.595249176025391513e+00,-5.803544998168945312e+00,5.583278179168701172e+00,-4.142761230468750000e+00,3.433227539062500000e-01,8.239746093750000000e-01
5.596788501739501953e+01,5.595249176025391513e+00,-5.803544998168945312e+00,5.494692802429199219e+00,-4.142761230468750000e+00,3.433227539062500000e-01,7.247924804687500000e-01
5.598301601409912109e+01,4.984727859497070312e+00,-5.705382347106933594e+00,5.487510204315185547e+00,-3.807067871093750000e+00,8.697509765625000000e-01,1.228332519531250000e+00
5.599466323852539062e+01,4.944026470184326172e+00,-5.791574001312255859e+00,5.358223438262940341e+00,-3.753662109375000000e+00,1.426696777343750000e+00,7.247924804687500000e-01
5.600926256179809570e+01,4.984727859497070312e+00,-5.705382347106933594e+00,5.487510204315185547e+00,-3.753662109375000000e+00,1.426696777343750000e+00,5.645751953125000000e-01
5.602200889587402344e+01,5.231330394744873047e+00,-5.791574001312255859e+00,5.358223438262940341e+00,-3.318786621093750000e+00,1.983642578125000000e-01,-4.501342773437500000e-01
5.603687191009521484e+01,5.621585369110106534e+00,-5.753266811370849609e+00,5.578489780426025391e+00,-3.318786621093750000e+00,1.983642578125000000e-01,-4.501342773437500000e-01
5.604862928390502930e+01,5.542576789855957031e+00,-5.928043365478516513e+00,5.578489780426025391e+00,-3.654479980468750000e+00,-6.179809570312500000e-01,5.950927734375000000e-01
5.606315326690673828e+01,5.542576789855957031e+00,-6.126761913299560547e+00,5.578489780426025391e+00,-3.654479980468750000e+00,-6.179809570312500000e-01,5.950927734375000000e-01
5.607835721969604492e+01,5.386953830718994141e+00,-6.126761913299560547e+00,5.485116004943847656e+00,-3.952026367187500000e+00,-6.179809570312500000e-01,5.950927734375000000e-01
5.609313988685607910e+01,5.386953830718994141e+00,-6.081272125244141513e+00,5.485116004943847656e+00,-3.829956054687500000e+00,3.585815429687500000e-01,6.256103515625000000e-01
5.610625386238098145e+01,5.386953830718994141e+00,-5.475539207458496094e+00,5.738901615142822266e+00,-3.952026367187500000e+00,3.585815429687500000e-01,1.350402832031250000e+00
5.611811399459838867e+01,5.269638061523437500e+00,-5.475539207458496094e+00,5.738901615142822266e+00,-4.013061523437500000e+00,-2.288818359375000000e-01,1.350402832031250000e+00
5.613521981239318848e+01,4.759673118591308594e+00,-5.825092792510986328e+00,5.176263809204101562e+00,-4.013061523437500000e+00,-2.288818359375000000e-01,1.350402832031250000e+00
5.614617919921875000e+01,4.759673118591308594e+00,-5.825092792510986328e+00,5.176263809204101562e+00,-4.196166992187500000e+00,2.113342285156250000e+00,8.697509765625000000e-01
5.615936040878295898e+01,5.300762653350830078e+00,-5.724535942077637607e+00,5.465962409973144531e+00,-3.623962402343750000e+00,2.113342285156250000e+00,1.373291015625000000e-01
5.617396688461303711e+01,5.571307182312011719e+00,-5.724535942077637607e+00,5.516240596771240234e+00,-4.196166992187500000e+00,-9.841918945312500000e-01,-1.296997070312500000e-01
5.618621635437011719e+01,5.571307182312011719e+00,-5.741295814514160156e+00,5.516240596771240234e+00,-4.600524902343750000e+00,-9.841918945312500000e-01,-1.296997070312500000e-01
5.620208549499511719e+01,5.252878665924072266e+00,-5.851428985595702237e+00,5.532999992370605469e+00,-4.600524902343750000e+00,1.525878906250000000e-02,1.419067382812500000e+00
5.621596980094909668e+01,5.252878665924072266e+00,-5.894524574279785156e+00,5.930437564849853516e+00,-4.837036132812500000e+00,8.392333984375000000e-01,1.419067382812500000e+00
5.622832775115966797e+01,5.319916248321533203e+00,-5.894524574279785156e+00,6.663063049316406250e+00,-5.058288574218750000e+00,6.179809570312500000e-01,-2.288818359375000000e-01
5.624089574813842773e+01,5.516240596771240234e+00,-5.908889770507812500e+00,6.663063049316406250e+00,-5.058288574218750000e+00,6.179809570312500000e-01,-2.288818359375000000e-01
5.625801086425781250e+01,5.319916248321533203e+00,-5.908889770507812500e+00,6.409277915954589844e+00,-5.142211914062500000e+00,6.179809570312500000e-01,9.460449218750000000e-01
5.626929712295532227e+01,5.135562419891356534e+00,-5.758055210113525391e+00,6.325480937957763672e+00,-5.142211914062500000e+00,1.609802246093750000e+00,9.460449218750000000e-01
5.628248381614685059e+01,5.125985622406005859e+00,-5.758055210113525391e+00,5.966350555419922763e+00,-5.142211914062500000e+00,1.609802246093750000e+00,2.143859863281250000e+00
5.629702591896057129e+01,5.125985622406005859e+00,-5.255272865295410156e+00,5.966350555419922763e+00,-3.715515136718750000e+00,-5.645751953125000000e-01,2.037048339843750000e+00
5.630922985076904297e+01,5.465962409973144531e+00,-6.042964935302733487e+00,6.323086738586425781e+00,-3.715515136718750000e+00,-5.645751953125000000e-01,2.037048339843750000e+00
5.632436847686767578e+01,5.465962409973144531e+00,-5.652709960937500000e+00,6.323086738586425781e+00,-5.065917968750000000e+00,-2.288818359375000000e-01,2.037048339843750000e+00
5.633694100379943848e+01,5.284003257751464844e+00,-5.652709960937500000e+00,5.518634796142578125e+00,-5.065917968750000000e+00,1.289367675781250000e+00,-1.289367675781250000e+00
5.635122585296630859e+01,5.284003257751464844e+00,-5.652709960937500000e+00,5.518634796142578125e+00,-4.150390625000000000e+00,1.289367675781250000e+00,1.846313476562500000e+00
5.636421227455139160e+01,5.336675643920898438e+00,-5.674257755279541016e+00,5.959167957305907315e+00,-3.707885742187500000e+00,-2.479553222656250000e+00,1.846313476562500000e+00
5.637853646278381348e+01,5.386953830718994141e+00,-5.700593948364257812e+00,5.959167957305907315e+00,-3.364562988281250000e+00,-2.479553222656250000e+00,3.356933593750000000e+00
5.639391541481018066e+01,6.318298339843750000e+00,-6.358999729156494141e+00,4.838681697845458984e+00,-3.707885742187500000e+00,3.608703613281250000e+00,3.356933593750000000e+00
5.640563297271728516e+01,5.427655220031738281e+00,-5.700593948364257812e+00,4.838681697845458984e+00,-3.364562988281250000e+00,3.608703613281250000e+00,5.889892578125000000e+00
5.642086386680603027e+01,5.750872611999512607e+00,-6.358999729156494141e+00,4.838681697845458984e+00,-5.165100097656250000e+00,-3.410339355468750000e+00,6.057739257812500000e+00
5.643298363685607910e+01,5.427655220031738281e+00,-6.459556102752685547e+00,4.764461517333983487e+00,-1.319885253906250000e+00,-5.554199218750000000e+00,6.057739257812500000e+00
5.644737124443054199e+01,5.109226226806641513e+00,-6.459556102752685547e+00,4.764461517333983487e+00,1.197814941406250000e+00,-5.554199218750000000e+00,9.765625000000000000e-01
5.646025347709655762e+01,4.529829502105712891e+00,-6.837840080261231357e+00,4.764461517333983487e+00,1.197814941406250000e+00,-7.019042968750000000e-01,9.765625000000000000e-01
5.647483587265014648e+01,5.109226226806641513e+00,-6.143521308898925781e+00,5.418078422546386719e+00,-1.899719238281250000e+00,-7.019042968750000000e-01,3.372192382812500000e+00
5.648624157905578613e+01,5.612008571624755859e+00,-6.143521308898925781e+00,5.418078422546386719e+00,-2.098083496093750000e+00,-7.019042968750000000e-01,4.623413085937500000e+00
5.650124025344848633e+01,5.612008571624755859e+00,-5.980715751647949219e+00,5.418078422546386719e+00,-2.098083496093750000e+00,2.960205078125000000e+00,3.372192382812500000e+00
5.651726627349853516e+01,5.080495834350585938e+00,-5.882553577423096591e+00,6.397306919097900391e+00,-5.401611328125000000e+00,2.960205078125000000e+00,1.625061035156250000e+00
5.652827787399291992e+01,5.080495834350585938e+00,-5.803544998168945312e+00,5.396530628204346591e+00,-5.401611328125000000e+00,2.609252929687500000e+00,5.416870117187500000e-01
5.654431748390197754e+01,5.080495834350585938e+00,-5.803544998168945312e+00,5.444414615631104404e+00,-4.219055175781250000e+00,-6.843566894531250000e+00,5.416870117187500000e-01
5.655578398704528809e+01,5.901707172393798828e+00,-5.803544998168945312e+00,5.444414615631104404e+00,-4.219055175781250000e+00,2.609252929687500000e+00,1.869201660156250000e+00
5.657051897048950195e+01,6.363788127899169922e+00,-5.920860767364502841e+00,5.444414615631104404e+00,-1.716613769531250000e+00,-6.843566894531250000e+00,5.096435546875000000e+00
5.658252787590026855e+01,6.363788127899169922e+00,-7.158662796020507812e+00,3.193865060806274414e+00,-3.700256347656250000e+00,-3.051757812500000000e+00,1.869201660156250000e+00
5.659830021858215332e+01,6.342240333557128906e+00,-7.158662796020507812e+00,3.193865060806274414e+00,-3.700256347656250000e+00,-3.051757812500000000e+00,1.853942871093750000e+00
5.660930538177490234e+01,6.277596950531005859e+00,-6.409277915954589844e+00,5.612008571624755859e+00,-9.071350097656250000e+00,3.280639648437500000e-01,1.853942871093750000e+00
5.662473511695861816e+01,6.169857501983642578e+00,-6.124367713928222656e+00,5.980715751647949219e+00,-9.071350097656250000e+00,2.861022949218750000e+00,4.814147949218750000e+00
5.664191794395446777e+01,5.868188381195067471e+00,-6.124367713928222656e+00,6.406883716583252841e+00,-5.958557128906250000e+00,7.781982421875000000e-01,4.814147949218750000e+00
5.665214180946350098e+01,5.868188381195067471e+00,-5.255272865295410156e+00,6.406883716583252841e+00,-5.958557128906250000e+00,1.853942871093750000e+00,-4.463195800781250000e+00
5.666690587997436523e+01,5.463568210601806641e+00,-5.255272865295410156e+00,5.760449409484862393e+00,-5.958557128906250000e+00,7.781982421875000000e-01,-4.463195800781250000e+00
5.668101286888122559e+01,5.228936195373535156e+00,-5.255272865295410156e+00,5.760449409484862393e+00,-2.433776855468750000e+00,1.853942871093750000e+00,1.625061035156250000e+00
5.669417047500610352e+01,5.228936195373535156e+00,-5.442020416259766513e+00,5.576095581054688388e+00,-2.433776855468750000e+00,2.540588378906250000e+00,1.930236816406250000e+00
5.670564174652099609e+01,5.228936195373535156e+00,-5.442020416259766513e+00,5.695805549621582031e+00,-3.227233886718750000e+00,2.540588378906250000e+00,1.930236816406250000e+00
5.672311949729919434e+01,5.420472621917724609e+00,-5.612008571624755859e+00,5.695805549621582031e+00,-3.227233886718750000e+00,-1.953125000000000000e+00,1.930236816406250000e+00
5.673591780662536621e+01,5.102043628692626953e+00,-6.014234542846679688e+00,5.695805549621582031e+00,-3.227233886718750000e+00,-1.953125000000000000e+00,3.311157226562500000e+00
5.674769568443298340e+01,5.102043628692626953e+00,-6.014234542846679688e+00,5.554547786712647373e+00,-4.486083984375000000e+00,1.312255859375000000e+00,3.311157226562500000e+00
5.676496601104736328e+01,4.853046894073486328e+00,-6.014234542846679688e+00,5.554547786712647373e+00,-4.486083984375000000e+00,1.312255859375000000e+00,-8.010864257812500000e-01
5.677818727493286133e+01,4.853046894073486328e+00,-5.846640586853027344e+00,5.829881191253662109e+00,-2.815246582031250000e+00,-1.838684082031250000e+00,-1.213073730468750000e+00
5.678912186622619629e+01,5.195417404174804688e+00,-5.846640586853027344e+00,5.829881191253662109e+00,-2.815246582031250000e+00,-1.838684082031250000e+00,-1.213073730468750000e+00
5.680715274810791016e+01,5.195417404174804688e+00,-6.076483726501464844e+00,5.367800235748291016e+00,-2.815246582031250000e+00,-9.231567382812500000e-01,1.312255859375000000e+00
5.682045555114746094e+01,5.248090267181396484e+00,-6.076483726501464844e+00,5.367800235748291016e+00,-3.318786621093750000e+00,-9.231567382812500000e-01,1.312255859375000000e+00
5.683142852783203125e+01,5.248090267181396484e+00,-6.485892295837402344e+00,5.822698593139647549e+00,-3.318786621093750000e+00,-1.472473144531250000e+00,6.484985351562500000e-01
5.684596419334411621e+01,5.322310447692871094e+00,-6.382941722869872159e+00,5.822698593139647549e+00,-3.318786621093750000e+00,-2.243041992187500000e+00,6.027221679687500000e-01
5.685889577865600586e+01,5.537788391113281250e+00,-6.382941722869872159e+00,5.822698593139647549e+00,-4.531860351562500000e+00,-1.472473144531250000e+00,6.027221679687500000e-01
5.687329387664794922e+01,5.322310447692871094e+00,-6.081272125244141513e+00,5.633556365966797763e+00,-4.142761230468750000e+00,3.280639648437500000e-01,1.380920410156250000e+00
5.688810896873474121e+01,5.291185855865479404e+00,-5.432443618774414062e+00,5.700593948364257812e+00,-4.142761230468750000e+00,3.280639648437500000e-01,1.380920410156250000e+00
5.690042519569396973e+01,4.886565685272216797e+00,-6.081272125244141513e+00,5.633556365966797763e+00,-3.753662109375000000e+00,-2.136230468750000000e+00,-5.340576171875000000e-02
5.691275906562805176e+01,4.886565685272216797e+00,-5.808333396911621094e+00,5.619191169738769531e+00,-3.143310546875000000e+00,-2.136230468750000000e+00,-6.103515625000000000e-02
5.692791843414306641e+01,5.286397457122802734e+00,-6.258443355560302734e+00,5.619191169738769531e+00,-3.753662109375000000e+00,2.349853515625000000e+00,-6.103515625000000000e-02
5.693996620178222656e+01,5.286397457122802734e+00,-5.808333396911621094e+00,5.410895824432373047e+00,-3.143310546875000000e+00,2.349853515625000000e+00,1.113891601562500000e+00
5.695477199554443359e+01,5.262455463409423828e+00,-6.203376293182372159e+00,5.918466567993164062e+00,-3.334045410156250000e+00,1.548767089843750000e+00,1.983642578125000000e+00
5.696733164787292480e+01,5.006275653839111328e+00,-5.997475147247314453e+00,5.118803024291992188e+00,-2.067565917968750000e+00,6.408691406250000000e-01,1.113891601562500000e+00
5.698194289207458496e+01,5.006275653839111328e+00,-6.203376293182372159e+00,5.789179801940917969e+00,-2.777099609375000000e+00,-2.395629882812500000e+00,8.239746093750000000e-01
5.699332237243652344e+01,5.635950565338134766e+00,-6.169857501983642578e+00,5.470750808715820312e+00,-2.777099609375000000e+00,6.408691406250000000e-01,8.239746093750000000e-01
5.700882935523986816e+01,5.635950565338134766e+00,-6.210558891296387607e+00,5.607220172882080078e+00,-2.899169921875000000e+00,-4.249572753906250000e+00,1.121520996093750000e+00
5.702105236053466797e+01,5.178658008575440341e+00,-6.169857501983642578e+00,5.607220172882080078e+00,-3.150939941406250000e+00,3.890991210937500000e-01,1.358032226562500000e+00
5.703548574447631836e+01,5.090072631835937500e+00,-6.552929878234862393e+00,5.643133163452147549e+00,-3.211975097656250000e+00,-5.569458007812500000e-01,1.358032226562500000e+00
5.705098295211791992e+01,5.178658008575440341e+00,-6.378153324127197266e+00,5.643133163452147549e+00,-3.211975097656250000e+00,-5.569458007812500000e-01,1.113891601562500000e+00
5.706284093856811523e+01,5.090072631835937500e+00,-6.378153324127197266e+00,5.461174011230468750e+00,-2.395629882812500000e+00,-5.569458007812500000e-01,-1.373291015625000000e-01
5.707719349861145020e+01,5.049371242523193359e+00,-6.378153324127197266e+00,5.461174011230468750e+00,-2.395629882812500000e+00,2.143859863281250000e+00,-1.373291015625000000e-01
5.708912253379821777e+01,5.049371242523193359e+00,-6.449979305267333984e+00,5.461174011230468750e+00,-3.128051757812500000e+00,2.143859863281250000e+00,3.204345703125000000e+00
5.710443544387817383e+01,5.025429248809815341e+00,-6.449979305267333984e+00,5.506663799285888672e+00,-3.128051757812500000e+00,5.493164062500000000e-01,3.204345703125000000e+00
5.711665368080139160e+01,5.078101634979248047e+00,-5.975927352905272549e+00,5.506663799285888672e+00,-3.128051757812500000e+00,6.103515625000000000e-02,7.095336914062500000e-01
5.713143825531005859e+01,5.094861030578613281e+00,-5.975927352905272549e+00,5.506663799285888672e+00,-3.448486328125000000e+00,-3.433227539062500000e-01,7.095336914062500000e-01
5.714679694175720215e+01,5.880159378051757812e+00,-5.975927352905272549e+00,5.698199748992919922e+00,-3.448486328125000000e+00,-3.433227539062500000e-01,3.845214843750000000e+00
5.715814638137817383e+01,5.880159378051757812e+00,-5.564124584197998047e+00,5.667075157165527344e+00,-3.448486328125000000e+00,-3.433227539062500000e-01,3.845214843750000000e+00
5.717343378067016602e+01,5.185840606689453125e+00,-5.564124584197998047e+00,5.667075157165527344e+00,-3.646850585937500000e+00,-1.770019531250000000e+00,-1.190185546875000000e+00
5.718535995483398438e+01,5.137956619262695312e+00,-6.169857501983642578e+00,5.619191169738769531e+00,-3.646850585937500000e+00,-2.952575683593750000e+00,-1.190185546875000000e+00
5.720064687728881836e+01,5.185840606689453125e+00,-6.169857501983642578e+00,5.619191169738769531e+00,-3.646850585937500000e+00,-2.952575683593750000e+00,-1.091003417968750000e+00
5.721244454383850098e+01,5.861005783081054688e+00,-6.169857501983642578e+00,5.619191169738769531e+00,-6.225585937500000000e+00,7.934570312500000000e-01,-3.128051757812500000e-01
5.722829389572143555e+01,5.861005783081054688e+00,-6.878541469573974609e+00,5.286397457122802734e+00,-6.225585937500000000e+00,7.934570312500000000e-01,3.555297851562500000e+00
5.724289751052856445e+01,5.106832027435302734e+00,-6.878541469573974609e+00,5.286397457122802734e+00,-1.678466796875000000e+00,-2.487182617187500000e+00,3.875732421875000000e+00
5.725494480133056641e+01,5.106832027435302734e+00,-6.193799495697021484e+00,6.452373504638672763e+00,-1.678466796875000000e+00,-2.487182617187500000e+00,3.875732421875000000e+00
5.727186989784240723e+01,5.978321552276611328e+00,-6.193799495697021484e+00,6.452373504638672763e+00,-4.653930664062500000e+00,-1.838684082031250000e+00,2.952575683593750000e+00
5.728274893760681152e+01,5.978321552276611328e+00,-6.330269336700440341e+00,5.635950565338134766e+00,-4.653930664062500000e+00,-1.838684082031250000e+00,2.952575683593750000e+00
5.729680085182189941e+01,5.865794181823730469e+00,-6.330269336700440341e+00,5.635950565338134766e+00,-4.524230957031250000e+00,-1.434326171875000000e+00,2.952575683593750000e+00
5.731108784675598145e+01,4.987122058868408203e+00,-6.253654956817627841e+00,5.746084213256835938e+00,-4.524230957031250000e+00,-2.464294433593750000e+00,9.765625000000000000e-01
5.732308983802795410e+01,4.987122058868408203e+00,-6.086060523986816406e+00,5.746084213256835938e+00,-4.524230957031250000e+00,-1.434326171875000000e+00,-1.731872558593750000e+00
5.733612060546875000e+01,5.068524837493896484e+00,-6.086060523986816406e+00,5.437232017517089844e+00,-3.662109375000000000e+00,9.155273437500000000e-02,-1.731872558593750000e+00
5.735301709175109863e+01,5.068524837493896484e+00,-6.004657745361327237e+00,5.437232017517089844e+00,-3.662109375000000000e+00,2.883911132812500000e+00,4.005432128906250000e+00
5.736397480964660645e+01,5.068524837493896484e+00,-6.004657745361327237e+00,5.707776546478272373e+00,-3.662109375000000000e+00,2.883911132812500000e+00,4.005432128906250000e+00
5.737728095054626465e+01,5.023035049438476562e+00,-6.203376293182372159e+00,5.707776546478272373e+00,-3.662109375000000000e+00,-3.570556640625000000e+00,1.182556152343750000e+00
5.739505767822265625e+01,5.094861030578613281e+00,-6.203376293182372159e+00,5.791574001312255859e+00,-3.662109375000000000e+00,-3.570556640625000000e+00,5.340576171875000000e-02
5.740613889694213867e+01,5.908889770507812500e+00,-6.203376293182372159e+00,5.645527362823486328e+00,-4.188537597656250000e+00,-1.190185546875000000e+00,5.340576171875000000e-02
5.741902303695678711e+01,5.908889770507812500e+00,-6.390124320983887607e+00,5.573701381683349609e+00,-4.188537597656250000e+00,-1.190185546875000000e+00,4.524230957031250000e+00
5.743393778800964355e+01,4.505887508392333984e+00,-6.390124320983887607e+00,5.573701381683349609e+00,-2.723693847656250000e+00,-2.021789550781250000e+00,4.524230957031250000e+00
5.744636631011962891e+01,4.505887508392333984e+00,-6.275202751159667969e+00,5.509057998657226562e+00,-2.723693847656250000e+00,-2.021789550781250000e+00,9.384155273437500000e-01
5.746194291114807129e+01,5.188234806060791016e+00,-6.145915508270263672e+00,5.437232017517089844e+00,-4.058837890625000000e+00,-8.316040039062500000e-01,3.051757812500000000e-02
5.747590541839599609e+01,5.729324340820312500e+00,-6.248866558074951172e+00,5.437232017517089844e+00,-4.058837890625000000e+00,-7.934570312500000000e-01,3.051757812500000000e-02
5.748926186561584473e+01,5.729324340820312500e+00,-6.215347290039063388e+00,5.612008571624755859e+00,-3.265380859375000000e+00,-8.316040039062500000e-01,2.784729003906250000e+00
5.750125980377197266e+01,4.742913722991943359e+00,-6.248866558074951172e+00,5.612008571624755859e+00,-3.265380859375000000e+00,-2.212524414062500000e-01,2.784729003906250000e+00
5.751791620254516602e+01,4.742913722991943359e+00,-6.315904140472412109e+00,5.626373767852783203e+00,-3.852844238281250000e+00,-8.926391601562500000e-01,2.899169921875000000e-01
5.752886033058166504e+01,5.477933406829833984e+00,-6.315904140472412109e+00,5.626373767852783203e+00,-4.112243652343750000e+00,-6.713867187500000000e-01,2.899169921875000000e-01
5.754237031936645508e+01,5.477933406829833984e+00,-6.100425720214843750e+00,5.626373767852783203e+00,-3.852844238281250000e+00,-6.713867187500000000e-01,9.460449218750000000e-01
5.755811524391174316e+01,5.298368453979492188e+00,-6.100425720214843750e+00,5.458779811859130859e+00,-3.135681152343750000e+00,-3.967285156250000000e-01,2.487182617187500000e+00
5.756955385208129883e+01,4.848258495330810547e+00,-6.165069103240967685e+00,5.458779811859130859e+00,-3.135681152343750000e+00,-3.967285156250000000e-01,2.487182617187500000e+00
5.758517646789550781e+01,4.848258495330810547e+00,-6.167463302612304688e+00,5.583278179168701172e+00,-3.089904785156250000e+00,-1.144409179687500000e+00,5.340576171875000000e-02
5.759647703170776367e+01,5.549759387969971591e+00,-6.167463302612304688e+00,5.628767967224121094e+00,-3.395080566406250000e+00,-1.144409179687500000e+00,5.340576171875000000e-02
5.761171936988830566e+01,5.549759387969971591e+00,-6.112396717071532315e+00,5.583278179168701172e+00,-3.395080566406250000e+00,-1.220703125000000000e-01,1.029968261718750000e+00
5.762679028511047363e+01,5.300762653350830078e+00,-5.932831764221191406e+00,5.583278179168701172e+00,-3.593444824218750000e+00,9.155273437500000000e-02,1.327514648437500000e+00
5.763846015930175781e+01,4.809951305389403409e+00,-5.932831764221191406e+00,5.516240596771240234e+00,-3.776550292968750000e+00,9.155273437500000000e-02,1.327514648437500000e+00
5.765349197387695312e+01,4.809951305389403409e+00,-6.042964935302733487e+00,5.547365188598632812e+00,-3.776550292968750000e+00,-4.043579101562500000e-01,-1.144409179687500000e-01
5.766541337966918945e+01,5.451597213745117188e+00,-6.117185115814208984e+00,5.547365188598632812e+00,-3.471374511718750000e+00,-4.043579101562500000e-01,-1.144409179687500000e-01
5.768060111999511719e+01,5.451597213745117188e+00,-6.117185115814208984e+00,5.559336185455322266e+00,-3.250122070312500000e+00,-3.890991210937500000e-01,3.051757812500000000e-01
5.769276404380798340e+01,5.015852451324462891e+00,-6.186616897583007812e+00,5.657498359680175781e+00,-3.250122070312500000e+00,-3.890991210937500000e-01,4.348754882812500000e-01
5.770749020576477051e+01,5.015852451324462891e+00,-6.186616897583007812e+00,5.700593948364257812e+00,-3.250122070312500000e+00,-2.899169921875000000e-01,4.348754882812500000e-01
5.772281765937805176e+01,5.430049419403076172e+00,-6.047753334045410156e+00,5.700593948364257812e+00,-4.241943359375000000e+00,-1.907348632812500000e-01,6.713867187500000000e-01
5.773465085029602051e+01,5.430049419403076172e+00,-6.040570735931396484e+00,5.370194435119628906e+00,-4.241943359375000000e+00,-1.678466796875000000e-01,1.159667968750000000e+00
5.775004577636718750e+01,5.025429248809815341e+00,-5.875370979309082031e+00,5.370194435119628906e+00,-3.631591796875000000e+00,-1.678466796875000000e-01,1.159667968750000000e+00
5.776139307022094727e+01,5.025429248809815341e+00,-5.875370979309082031e+00,5.470750808715820312e+00,-3.379821777343750000e+00,-2.517700195312500000e-01,8.392333984375000000e-01
5.777689528465270996e+01,5.128379821777343750e+00,-6.098031520843505859e+00,5.518634796142578125e+00,-3.379821777343750000e+00,-2.517700195312500000e-01,3.585815429687500000e-01
5.778891110420227051e+01,5.556941986083983487e+00,-6.098031520843505859e+00,5.518634796142578125e+00,-3.517150878906250000e+00,6.713867187500000000e-01,3.585815429687500000e-01
5.780310964584350586e+01,5.556941986083983487e+00,-6.028599739074707031e+00,5.518634796142578125e+00,-3.623962402343750000e+00,6.713867187500000000e-01,1.167297363281250000e+00
5.781616616249084473e+01,5.159504413604736328e+00,-6.028599739074707031e+00,5.430049419403076172e+00,-3.517150878906250000e+00,-3.356933593750000000e-01,1.350402832031250000e+00
5.783052659034729004e+01,5.159504413604736328e+00,-6.028599739074707031e+00,5.403713226318358487e+00,-3.601074218750000000e+00,-4.348754882812500000e-01,1.350402832031250000e+00
5.784215164184570312e+01,5.240907669067382812e+00,-5.975927352905272549e+00,5.430049419403076172e+00,-3.601074218750000000e+00,-5.493164062500000000e-01,8.316040039062500000e-01
5.785739159584045410e+01,5.336675643920898438e+00,-5.975927352905272549e+00,5.394136428833007812e+00,-3.654479980468750000e+00,-5.493164062500000000e-01,6.484985351562500000e-01
5.787254333496093750e+01,5.336675643920898438e+00,-6.019022941589356357e+00,5.456385612487792969e+00,-3.654479980468750000e+00,-5.493164062500000000e-01,6.103515625000000000e-01
5.788447999954223633e+01,5.319916248321533203e+00,-6.167463302612304688e+00,5.456385612487792969e+00,-3.677368164062500000e+00,-5.950927734375000000e-01,6.103515625000000000e-01
5.789992499351501465e+01,5.319916248321533203e+00,-6.167463302612304688e+00,5.612008571624755859e+00,-3.707885742187500000e+00,-5.950927734375000000e-01,2.670288085937500000e-01
5.791158580780029297e+01,5.374982833862304688e+00,-6.095637321472167969e+00,5.612008571624755859e+00,-3.829956054687500000e+00,-4.196166992187500000e-01,2.670288085937500000e-01
5.792713689804077148e+01,5.374982833862304688e+00,-6.054935932159423828e+00,5.561730384826660156e+00,-3.707885742187500000e+00,-1.754760742187500000e-01,1.144409179687500000e+00
5.794100642204284668e+01,5.264849662780761719e+00,-5.963956356048583984e+00,5.516240596771240234e+00,-3.700256347656250000e+00,-1.754760742187500000e-01,1.144409179687500000e+00
5.795332479476928711e+01,5.224147796630858487e+00,-5.940014362335205078e+00,5.516240596771240234e+00,-3.700256347656250000e+00,-1.754760742187500000e-01,7.553100585937500000e-01
5.796891522407531738e+01,5.224147796630858487e+00,-5.940014362335205078e+00,5.516240596771240234e+00,-3.700256347656250000e+00,-6.942749023437500000e-01,-1.144409179687500000e-01
5.798307108879089355e+01,5.248090267181396484e+00,-5.935225963592528409e+00,5.523423194885253906e+00,-3.547668457031250000e+00,-6.942749023437500000e-01,-1.144409179687500000e-01
5.799535489082336426e+01,5.312733650207520419e+00,-5.935225963592528409e+00,5.578489780426025391e+00,-3.547668457031250000e+00,-3.967285156250000000e-01,1.228332519531250000e+00
5.800725698471069336e+01,5.312733650207520419e+00,-6.002263545989990234e+00,5.578489780426025391e+00,-3.570556640625000000e+00,-2.593994140625000000e-01,1.228332519531250000e+00
5.802497220039367676e+01,5.226541996002197266e+00,-6.011840343475342685e+00,5.461174011230468750e+00,-3.631591796875000000e+00,-2.593994140625000000e-01,7.400512695312500000e-01
5.803799390792846680e+01,5.226541996002197266e+00,-6.002263545989990234e+00,5.427655220031738281e+00,-3.631591796875000000e+00,-2.822875976562500000e-01,2.517700195312500000e-01
5.805022430419921875e+01,5.226541996002197266e+00,-6.019022941589356357e+00,5.461174011230468750e+00,-3.089904785156250000e+00,-5.416870117187500000e-01,2.517700195312500000e-01
5.806698918342590332e+01,5.128379821777343750e+00,-6.107608318328857422e+00,5.465962409973144531e+00,-3.089904785156250000e+00,-5.416870117187500000e-01,8.621215820312500000e-01
5.807750606536865234e+01,5.128379821777343750e+00,-6.107608318328857422e+00,5.568912982940673828e+00,-3.524780273437500000e+00,2.288818359375000000e-02,8.621215820312500000e-01
5.809180378913879395e+01,5.159504413604736328e+00,-6.107608318328857422e+00,5.595249176025391513e+00,-3.631591796875000000e+00,2.288818359375000000e-02,1.373291015625000000e-01
5.810892653465270996e+01,5.396530628204346591e+00,-6.177040100097656250e+00,5.691017150878906250e+00,-3.631591796875000000e+00,-3.814697265625000000e-02,1.373291015625000000e-01
5.811986255645751953e+01,5.396530628204346591e+00,-6.177040100097656250e+00,5.691017150878906250e+00,-3.631591796875000000e+00,-3.814697265625000000e-02,1.335144042968750000e+00
5.813312387466430664e+01,5.185840606689453125e+00,-5.837063789367675781e+00,5.470750808715820312e+00,-3.318786621093750000e+00,-3.814697265625000000e-02,1.335144042968750000e+00
5.815099024772644043e+01,5.082890033721923828e+00,-5.837063789367675781e+00,5.470750808715820312e+00,-3.318786621093750000e+00,-5.416870117187500000e-01,7.171630859375000000e-01
5.816192746162414551e+01,5.082890033721923828e+00,-5.863399982452392578e+00,5.525817394256591797e+00,-3.524780273437500000e+00,-5.416870117187500000e-01,7.171630859375000000e-01
5.817560029029846191e+01,5.437232017517089844e+00,-6.011840343475342685e+00,5.525817394256591797e+00,-3.814697265625000000e+00,-5.264282226562500000e-01,7.476806640625000000e-01
5.818762516975402832e+01,5.437232017517089844e+00,-6.133944511413574219e+00,5.616796970367431641e+00,-3.814697265625000000e+00,-5.264282226562500000e-01,7.781982421875000000e-01
5.820317673683166504e+01,5.171475410461425781e+00,-6.133944511413574219e+00,5.477933406829833984e+00,-3.616333007812500000e+00,-7.781982421875000000e-01,7.781982421875000000e-01
5.821487236022949219e+01,5.171475410461425781e+00,-6.004657745361327237e+00,5.477933406829833984e+00,-3.616333007812500000e+00,-7.781982421875000000e-01,8.087158203125000000e-01
5.823002290725708008e+01,5.236118793487548828e+00,-6.004657745361327237e+00,5.477933406829833984e+00,-3.738403320312500000e+00,3.051757812500000000e-01,9.460449218750000000e-01
5.824427199363708496e+01,5.236118793487548828e+00,-5.896918773651122159e+00,5.492298603057861328e+00,-3.738403320312500000e+00,4.730224609375000000e-01,9.460449218750000000e-01
5.825629138946533203e+01,5.188234806060791016e+00,-6.011840343475342685e+00,5.525817394256591797e+00,-3.738403320312500000e+00,4.730224609375000000e-01,7.934570312500000000e-01
5.827170729637145996e+01,5.188234806060791016e+00,-6.011840343475342685e+00,5.590460777282714844e+00,-3.562927246093750000e+00,-5.111694335937500000e-01,3.204345703125000000e-01
5.828369688987731934e+01,5.384559631347656250e+00,-6.011840343475342685e+00,5.592854976654052734e+00,-3.677368164062500000e+00,-5.111694335937500000e-01,3.204345703125000000e-01
5.829827213287353516e+01,5.384559631347656250e+00,-5.995080947875977451e+00,5.590460777282714844e+00,-3.677368164062500000e+00,6.866455078125000000e-02,6.561279296875000000e-01
5.831017208099365234e+01,5.243301868438721591e+00,-5.913678169250487393e+00,5.571307182312011719e+00,-3.677368164062500000e+00,6.866455078125000000e-02,1.091003417968750000e+00
5.832591891288757324e+01,5.085284233093261719e+00,-5.913678169250487393e+00,5.549759387969971591e+00,-3.677368164062500000e+00,-7.629394531250000000e-03,1.091003417968750000e+00
5.834054350852966309e+01,5.085284233093261719e+00,-5.932831764221191406e+00,5.549759387969971591e+00,-3.646850585937500000e+00,-6.332397460937500000e-01,2.517700195312500000e-01
