# elapsed time, f2_acc_x, f2_acc_y, f2_acc_z, f2_gyro_x, f2_gyro_y, f2_gyro_z
3.071045041084289551e+01,8.614337921142576349e+00,-3.347093820571899414e+00,3.248931646347046343e+00,2.136230468750000000e-01,-1.068115234375000000e-01,-1.907348632812500000e-01
3.072097420692443848e+01,8.614337921142576349e+00,-3.347093820571899414e+00,3.347093820571899414e+00,2.670288085937500000e-01,-2.288818359375000000e-02,-2.593994140625000000e-01
3.073477172851562500e+01,8.602366447448730469e+00,-3.303998231887817383e+00,3.378218650817871094e+00,5.645751953125000000e-01,7.629394531250000000e-03,-2.593994140625000000e-01
3.074727678298950195e+01,8.602366447448730469e+00,-3.303998231887817383e+00,3.416525840759277344e+00,5.645751953125000000e-01,7.629394531250000000e-03,-1.983642578125000000e-01
3.076199960708618164e+01,8.635885238647460938e+00,-3.327940225601196289e+00,3.416525840759277344e+00,5.645751953125000000e-01,2.288818359375000000e-02,-1.983642578125000000e-01
3.077459073066711426e+01,8.647856712341308594e+00,-3.327940225601196289e+00,3.351882219314575195e+00,4.119873046875000000e-01,2.288818359375000000e-02,-1.983642578125000000e-01
3.078920578956604004e+01,8.643068313598632812e+00,-3.294421434402466264e+00,3.347093820571899414e+00,3.738403320312500000e-01,1.144409179687500000e-01,-3.509521484375000000e-01
3.080102872848510742e+01,8.647856712341308594e+00,-3.270479440689086914e+00,3.347093820571899414e+00,3.051757812500000000e-01,-1.602172851562500000e-01,-3.509521484375000000e-01
3.081681227684020996e+01,8.643068313598632812e+00,-3.270479440689086914e+00,3.406949043273926225e+00,3.051757812500000000e-01,-3.051757812500000000e-02,-3.738403320312500000e-01
3.083124279975891113e+01,8.607154846191406250e+00,-3.354276418685913086e+00,3.423708438873291016e+00,3.738403320312500000e-01,-3.051757812500000000e-02,-1.296997070312500000e-01
3.084374070167541504e+01,8.607154846191406250e+00,-3.361459016799926758e+00,3.406949043273926225e+00,3.738403320312500000e-01,9.155273437500000000e-02,-3.738403320312500000e-01
3.085874176025390625e+01,8.607154846191406250e+00,-3.361459016799926758e+00,3.371036052703857422e+00,3.662109375000000000e-01,9.155273437500000000e-02,-1.296997070312500000e-01
3.087046837806701660e+01,8.607154846191406250e+00,-3.318363428115844727e+00,3.371036052703857422e+00,3.662109375000000000e-01,7.629394531250000000e-03,-2.212524414062500000e-01
3.088495945930480957e+01,8.607154846191406250e+00,-3.318363428115844727e+00,3.373430252075195757e+00,3.662109375000000000e-01,7.629394531250000000e-03,0.000000000000000000e+00
3.089940619468688965e+01,8.607154846191406250e+00,-3.325546026229858398e+00,3.373430252075195757e+00,2.822875976562500000e-01,7.629394531250000000e-03,0.000000000000000000e+00
3.091198372840881348e+01,8.614337921142576349e+00,-3.337517023086548296e+00,3.385401248931884766e+00,2.288818359375000000e-01,-1.525878906250000000e-02,3.280639648437500000e-01
3.092776775360107422e+01,8.607154846191406250e+00,-3.344699621200561079e+00,3.409343242645264116e+00,2.822875976562500000e-01,-6.103515625000000000e-02,3.280639648437500000e-01
3.094155049324035645e+01,8.611943244934082031e+00,-3.344699621200561079e+00,3.505111217498779741e+00,2.670288085937500000e-01,-1.525878906250000000e-02,6.866455078125000000e-02
3.095454716682434082e+01,8.611943244934082031e+00,-3.299209833145141602e+00,3.505111217498779741e+00,2.670288085937500000e-01,1.220703125000000000e-01,-2.670288085937500000e-01
3.096668481826782227e+01,8.611943244934082031e+00,-3.299209833145141602e+00,3.414131641387939453e+00,1.831054687500000000e-01,1.220703125000000000e-01,-2.670288085937500000e-01
3.098343014717102051e+01,8.633491516113281250e+00,-3.301604032516479492e+00,3.325546026229858398e+00,1.831054687500000000e-01,1.220703125000000000e-01,-4.272460937500000000e-01
3.099442911148071289e+01,8.688557624816894531e+00,-3.313575029373168945e+00,3.325546026229858398e+00,5.569458007812500000e-01,3.051757812500000000e-01,-2.593994140625000000e-01
3.100792908668518066e+01,8.755595207214355469e+00,-3.313575029373168945e+00,3.292027235031127930e+00,5.569458007812500000e-01,3.814697265625000000e-01,-6.942749023437500000e-01
3.102259635925292969e+01,8.755595207214355469e+00,-3.265691041946411133e+00,3.361459016799926758e+00,1.831054687500000000e-01,4.272460937500000000e-01,-2.593994140625000000e-01
3.103463983535766602e+01,8.688557624816894531e+00,-3.244143247604370117e+00,3.292027235031127930e+00,-2.822875976562500000e-01,4.272460937500000000e-01,-1.220703125000000000e-01
3.104745697975158691e+01,8.477868080139160156e+00,-3.265691041946411133e+00,3.313575029373168945e+00,-5.187988281250000000e-01,7.629394531250000000e-03,6.561279296875000000e-01
3.106464910507202148e+01,8.477868080139160156e+00,-3.201047658920288086e+00,3.313575029373168945e+00,-6.179809570312500000e-01,-2.441406250000000000e-01,1.228332519531250000e+00
3.107693314552307129e+01,8.544905662536621094e+00,-3.162740468978881836e+00,3.344699621200561079e+00,-9.613037109375000000e-01,-8.392333984375000000e-01,1.480102539062500000e+00
3.108987069129943848e+01,8.544905662536621094e+00,-3.162740468978881836e+00,3.344699621200561079e+00,-1.136779785156250000e+00,-2.441406250000000000e-01,1.480102539062500000e+00
3.110667014122009277e+01,8.516175270080566406e+00,-3.287238836288451704e+00,3.426102638244628906e+00,-1.174926757812500000e+00,-3.662109375000000000e-01,8.010864257812500000e-01
3.111788320541381836e+01,8.482656478881835938e+00,-3.356670618057251421e+00,3.258508443832397017e+00,-1.174926757812500000e+00,-3.662109375000000000e-01,8.010864257812500000e-01
3.113205218315124512e+01,8.516175270080566406e+00,-3.356670618057251421e+00,3.287238836288451704e+00,-6.484985351562500000e-01,-6.484985351562500000e-01,1.533508300781250000e+00
3.114577627182006836e+01,8.482656478881835938e+00,-3.356670618057251421e+00,3.287238836288451704e+00,-6.484985351562500000e-01,-7.324218750000000000e-01,1.533508300781250000e+00
3.115770053863525391e+01,8.628703117370605469e+00,-3.404554843902587891e+00,3.325546026229858398e+00,-8.773803710937500000e-01,-7.324218750000000000e-01,1.373291015625000000e+00
3.117012047767639160e+01,8.482656478881835938e+00,-3.342305421829224077e+00,3.325546026229858398e+00,-8.773803710937500000e-01,-7.324218750000000000e-01,6.561279296875000000e-01
3.118571519851684570e+01,8.628703117370605469e+00,-3.349488019943237305e+00,3.289633035659790039e+00,-6.790161132812500000e-01,-7.324218750000000000e-01,6.561279296875000000e-01
3.120004558563232422e+01,8.628703117370605469e+00,-3.349488019943237305e+00,3.289633035659790039e+00,-1.525878906250000000e-02,-5.111694335937500000e-01,6.561279296875000000e-01
3.121240019798278809e+01,8.628703117370605469e+00,-3.495534420013428178e+00,3.339911222457885742e+00,-1.525878906250000000e-02,-9.918212890625000000e-02,1.205444335937500000e+00
3.122717928886413574e+01,8.657433509826660156e+00,-3.495534420013428178e+00,3.339911222457885742e+00,-3.814697265625000000e-01,-9.918212890625000000e-02,1.205444335937500000e+00
3.123974370956420898e+01,8.657433509826660156e+00,-3.294421434402466264e+00,3.335122823715209961e+00,-5.874633789062500000e-01,-9.918212890625000000e-02,1.205444335937500000e+00
3.125454640388488770e+01,8.657433509826660156e+00,-3.251325845718383789e+00,3.232172250747680664e+00,-5.874633789062500000e-01,-1.388549804687500000e+00,1.976013183593750000e+00
3.126646518707275391e+01,8.566453933715820312e+00,-3.251325845718383789e+00,3.320757627487182617e+00,-5.874633789062500000e-01,-1.243591308593750000e+00,2.487182617187500000e+00
3.128087592124938965e+01,8.566453933715820312e+00,-3.251325845718383789e+00,3.306392431259155718e+00,-9.613037109375000000e-01,-1.243591308593750000e+00,2.487182617187500000e+00
3.129324531555175781e+01,8.566453933715820312e+00,-3.294421434402466264e+00,3.306392431259155718e+00,-1.663208007812500000e+00,-1.243591308593750000e+00,2.487182617187500000e+00
3.130795454978942871e+01,8.544905662536621094e+00,-3.327940225601196289e+00,3.215412855148315430e+00,-1.663208007812500000e+00,4.577636718750000000e-02,1.335144042968750000e+00
3.132375144958496094e+01,8.544905662536621094e+00,-3.327940225601196289e+00,3.213018655776977095e+00,-1.617431640625000000e+00,-1.258850097656250000e+00,2.983093261718750000e+00
3.133465862274169922e+01,8.619126319885253906e+00,-3.327940225601196289e+00,3.215412855148315430e+00,-1.579284667968750000e+00,6.103515625000000000e-02,9.536743164062500000e-01
3.135004496574401855e+01,8.705317497253417969e+00,-3.258508443832397017e+00,3.213018655776977095e+00,-1.617431640625000000e+00,-8.544921875000000000e-01,1.144409179687500000e+00
3.136209630966186523e+01,8.705317497253417969e+00,-3.483563423156738281e+00,3.296815633773804155e+00,-2.052307128906250000e+00,4.577636718750000000e-02,1.144409179687500000e+00
3.137745690345764160e+01,8.497021675109861505e+00,-3.258508443832397017e+00,3.198653459548950195e+00,-2.731323242187500000e+00,-8.544921875000000000e-01,3.982543945312500000e+00
3.138889527320861816e+01,8.497021675109861505e+00,-3.404554843902587891e+00,3.296815633773804155e+00,-2.937316894531250000e+00,-1.472473144531250000e+00,3.982543945312500000e+00
3.140501546859741211e+01,8.252813339233396661e+00,-3.205836057662963867e+00,3.253720045089721680e+00,-4.638671875000000000e+00,-3.494262695312500000e+00,5.485534667968750000e+00
3.141639566421508789e+01,8.233659744262695312e+00,-3.224989652633666992e+00,3.591302394866943803e+00,-4.898071289062500000e+00,-1.472473144531250000e+00,1.037597656250000000e+00
3.143171668052673340e+01,8.233659744262695312e+00,-3.224989652633666992e+00,3.327940225601196289e+00,-5.828857421875000000e+00,-3.494262695312500000e+00,5.256652832031250000e+00
3.144680523872375488e+01,8.583212852478027344e+00,-3.500322818756103516e+00,3.327940225601196289e+00,-6.027221679687500000e+00,-2.189636230468750000e+00,3.845214843750000000e+00
3.145786666870117188e+01,8.920795440673828125e+00,-3.543418407440185103e+00,3.181894063949584961e+00,-6.027221679687500000e+00,-2.777099609375000000e+00,5.142211914062500000e+00
3.147248458862304688e+01,8.920795440673828125e+00,-3.711012601852416992e+00,3.114856243133544922e+00,-3.944396972656250000e+00,-2.189636230468750000e+00,3.845214843750000000e+00
3.148582768440246582e+01,8.779537200927732599e+00,-3.711012601852416992e+00,2.923320293426513672e+00,-2.784729003906250000e+00,-2.777099609375000000e+00,5.142211914062500000e+00
3.150017619132995605e+01,8.779537200927732599e+00,-3.452438831329345703e+00,2.923320293426513672e+00,-2.784729003906250000e+00,-4.600524902343750000e+00,3.196716308593750000e+00
3.151261687278747559e+01,8.262390136718750000e+00,-3.452438831329345703e+00,3.229778051376342773e+00,-5.043029785156250000e+00,-4.600524902343750000e+00,1.235961914062500000e+00
3.152806258201599121e+01,9.378087997436523438e+00,-3.112462043762207031e+00,3.409343242645264116e+00,-5.043029785156250000e+00,-7.629394531250000000e-01,9.918212890625000000e-02
3.153953790664672852e+01,9.378087997436523438e+00,-3.495534420013428178e+00,3.258508443832397017e+00,-5.043029785156250000e+00,-7.629394531250000000e-01,1.235961914062500000e+00
3.155449008941650391e+01,9.378087997436523438e+00,-3.593696594238280806e+00,3.373430252075195757e+00,-7.446289062500000000e+00,-2.250671386718750000e+00,3.791809082031250000e+00
3.157171750068664551e+01,8.741230010986326349e+00,-3.593696594238280806e+00,3.258508443832397017e+00,-8.636474609375000000e+00,-3.181457519531250000e+00,4.074096679687500000e+00
3.158270168304443359e+01,8.741230010986326349e+00,-3.593696594238280806e+00,3.160346269607543945e+00,-8.636474609375000000e+00,-6.568908691406250000e+00,5.065917968750000000e+00
3.159639215469360352e+01,8.741230010986326349e+00,-3.797203779220581055e+00,2.987963676452636719e+00,-8.544921875000000000e+00,-6.568908691406250000e+00,5.065917968750000000e+00
3.161073207855224609e+01,8.975861549377441406e+00,-3.797203779220581055e+00,2.987963676452636719e+00,-8.468627929687500000e+00,-4.173278808593750000e+00,2.677917480468750000e+00
3.162286877632141113e+01,8.492233276367187500e+00,-3.797203779220581055e+00,3.462015628814697266e+00,-7.705688476562500000e+00,2.746582031250000000e-01,2.677917480468750000e+00
3.163498044013977051e+01,8.339004516601562500e+00,-3.294421434402466264e+00,3.462015628814697266e+00,-8.468627929687500000e+00,2.746582031250000000e-01,1.304626464843750000e+00
3.165270352363586426e+01,8.010998725891111505e+00,-3.691859006881713867e+00,3.430891036987304688e+00,-7.400512695312500000e+00,-5.691528320312500000e+00,4.730224609375000000e+00
3.166376328468322754e+01,7.615955352783202237e+00,-3.373430252075195757e+00,2.853888273239136186e+00,-7.019042968750000000e+00,-8.125305175781250000e+00,-6.713867187500000000e-01
3.167698478698730469e+01,7.615955352783202237e+00,-3.373430252075195757e+00,2.853888273239136186e+00,-4.585266113281250000e+00,-8.125305175781250000e+00,4.714965820312500000e+00
3.169462728500366211e+01,8.774748802185058594e+00,-3.373430252075195757e+00,3.186682462692260742e+00,-3.631591796875000000e+00,-6.683349609375000000e+00,4.714965820312500000e+00
3.170573616027832031e+01,8.801085472106933594e+00,-3.083731651306152344e+00,3.186682462692260742e+00,-3.631591796875000000e+00,-6.683349609375000000e+00,4.714965820312500000e+00
3.171878695487976074e+01,8.801085472106933594e+00,-3.699041604995727983e+00,3.110067844390868697e+00,-6.668090820312500000e+00,-4.196166992187500000e+00,6.805419921875000000e+00
3.173362469673156738e+01,9.100360870361328125e+00,-3.821145772933959961e+00,3.110067844390868697e+00,-6.996154785156250000e+00,-4.920959472656250000e+00,2.372741699218750000e+00
3.174571919441223145e+01,9.100360870361328125e+00,-3.821145772933959961e+00,3.110067844390868697e+00,-7.759094238281250000e+00,-4.196166992187500000e+00,1.205444335937500000e+00
3.176111721992492676e+01,8.686163902282714844e+00,-4.290409564971923828e+00,3.004723072052001953e+00,-7.759094238281250000e+00,-4.173278808593750000e+00,1.205444335937500000e+00
3.177543616294860840e+01,8.686163902282714844e+00,-4.036623954772948331e+00,2.760514497756958008e+00,-8.422851562500000000e+00,-2.716064453125000000e+00,3.501892089843750000e+00
3.178777313232421875e+01,8.836997985839843750e+00,-4.036623954772948331e+00,2.975992679595947710e+00,-8.964538574218750000e+00,-2.716064453125000000e+00,3.501892089843750000e+00
3.179991388320922852e+01,9.021351814270019531e+00,-3.744531393051147905e+00,2.975992679595947710e+00,-8.964538574218750000e+00,9.155273437500000000e-01,3.501892089843750000e+00
3.181470823287963867e+01,9.021351814270019531e+00,-3.744531393051147905e+00,2.975992679595947710e+00,-5.897521972656250000e+00,9.155273437500000000e-01,3.791809082031250000e+00
3.182742834091186523e+01,9.358934402465820312e+00,-4.091690540313721591e+00,2.686294317245483398e+00,-5.897521972656250000e+00,-2.090454101562500000e+00,3.791809082031250000e+00
3.184221386909484863e+01,9.358934402465820312e+00,-4.091690540313721591e+00,2.652775526046752930e+00,-9.025573730468750000e+00,-2.090454101562500000e+00,3.791809082031250000e+00
3.185684514045715332e+01,9.169792175292966974e+00,-3.928884983062743697e+00,2.686294317245483398e+00,-9.025573730468750000e+00,-2.090454101562500000e+00,5.775451660156250000e+00
3.186894774436950684e+01,7.867346763610839844e+00,-3.691859006881713867e+00,2.652775526046752930e+00,-1.055908203125000000e+01,-1.144409179687500000e+00,5.775451660156250000e+00
3.188423919677734375e+01,7.740454196929932529e+00,-3.361459016799926758e+00,2.961627483367919922e+00,-8.544921875000000000e+00,1.007080078125000000e+00,2.593994140625000000e+00
3.189600992202758789e+01,7.740454196929932529e+00,-3.361459016799926758e+00,2.983175277709961382e+00,-7.339477539062500000e+00,1.518249511718750000e+00,2.593994140625000000e+00
3.191197180747985840e+01,7.738059997558593750e+00,-3.591302394866943803e+00,3.055001258850097656e+00,-7.225036621093750000e+00,2.395629882812500000e+00,2.593994140625000000e+00
3.192416024208068848e+01,7.647079944610596591e+00,-3.591302394866943803e+00,3.055001258850097656e+00,-7.225036621093750000e+00,2.395629882812500000e+00,-6.896972656250000000e+00
3.193884706497192383e+01,7.625532150268554688e+00,-3.478775024414062500e+00,2.779668092727661133e+00,-7.896423339843750000e+00,-1.098632812500000000e+00,-6.896972656250000000e+00
3.195370960235595703e+01,7.625532150268554688e+00,-3.478775024414062500e+00,2.779668092727661133e+00,-7.987976074218750000e+00,-1.098632812500000000e+00,-1.365661621093750000e+00
3.196496033668518066e+01,7.625532150268554688e+00,-3.584119796752929688e+00,2.779668092727661133e+00,-1.076507568359375000e+01,5.874633789062500000e-01,-1.365661621093750000e+00
3.198074436187744141e+01,9.169792175292966974e+00,-4.103661537170410156e+00,2.719813108444213867e+00,-9.536743164062500000e+00,2.159118652343750000e+00,-3.318786621093750000e+00
3.199207735061645508e+01,9.727641105651855469e+00,-4.266467571258544922e+00,2.715024709701538086e+00,-9.536743164062500000e+00,5.874633789062500000e-01,-3.318786621093750000e+00
3.200793099403381348e+01,9.727641105651855469e+00,-4.369418144226073331e+00,2.715024709701538086e+00,-7.369995117187500000e+00,1.678466796875000000e-01,-3.318786621093750000e+00
3.201909708976745605e+01,9.193734169006347656e+00,-4.369418144226073331e+00,2.829946279525756836e+00,-7.339477539062500000e+00,1.678466796875000000e-01,-3.669738769531250000e+00
3.203460431098937988e+01,8.149862289428710938e+00,-3.454833030700684038e+00,2.829946279525756836e+00,-7.339477539062500000e+00,1.319885253906250000e+00,-3.669738769531250000e+00
3.204581665992736816e+01,8.149862289428710938e+00,-3.454833030700684038e+00,2.873042106628417969e+00,-1.097869873046875000e+01,2.014160156250000000e+00,2.510070800781250000e+00
3.206137919425964355e+01,8.429984092712402344e+00,-3.454833030700684038e+00,2.882618904113769087e+00,-1.286315917968750000e+01,2.243041992187500000e+00,2.510070800781250000e+00
3.207654833793640137e+01,8.765172004699707031e+00,-3.552995204925537109e+00,2.882618904113769087e+00,-1.541137695312500000e+01,2.243041992187500000e+00,1.708984375000000000e+00
3.208852720260620117e+01,8.896853446960449219e+00,-3.761290788650512695e+00,2.717418909072875977e+00,-1.758575439453125000e+01,7.225036621093750000e+00,-3.265380859375000000e+00
3.210363030433654785e+01,8.896853446960449219e+00,-3.988739967346191850e+00,2.401384353637695757e+00,-1.758575439453125000e+01,3.128051757812500000e+00,-3.265380859375000000e+00
3.211568713188171387e+01,8.286332130432128906e+00,-4.003105163574218750e+00,2.252943754196166992e+00,-1.276397705078125000e+01,3.128051757812500000e+00,-4.211425781250000000e+00
3.213054323196411133e+01,8.221688270568847656e+00,-4.003105163574218750e+00,2.252943754196166992e+00,-8.842468261718750000e+00,3.128051757812500000e+00,-8.361816406250000000e+00
3.214295887947082520e+01,8.190564155578611505e+00,-4.003105163574218750e+00,2.463633537292480469e+00,-8.644104003906250000e+00,3.227233886718750000e+00,-6.439208984375000000e+00
3.215791296958923340e+01,8.190564155578611505e+00,-3.627215623855591264e+00,3.019088268280029297e+00,-8.644104003906250000e+00,3.227233886718750000e+00,-6.439208984375000000e+00
3.217110276222229004e+01,8.255207061767576349e+00,-3.629609823226928711e+00,3.095702648162841797e+00,-1.217651367187500000e+01,3.227233886718750000e+00,-4.478454589843750000e+00
3.218458247184753418e+01,8.339004516601562500e+00,-3.629609823226928711e+00,3.141192674636841264e+00,-1.303863525390625000e+01,1.464843750000000000e+00,-4.478454589843750000e+00
3.220277690887451172e+01,8.755595207214355469e+00,-4.177881717681884766e+00,3.141192674636841264e+00,-1.948547363281250000e+01,3.311157226562500000e+00,-6.805419921875000000e+00
3.221381330490112305e+01,9.224859237670898438e+00,-4.177881717681884766e+00,2.817975282669067383e+00,-1.948547363281250000e+01,3.349304199218750000e+00,-9.101867675781250000e+00
3.222614073753356934e+01,9.224859237670898438e+00,-4.084507942199707031e+00,2.817975282669067383e+00,-1.938629150390625000e+01,9.651184082031250000e+00,-9.101867675781250000e+00
3.224088907241821289e+01,9.315838813781738281e+00,-4.084507942199707031e+00,2.628833532333374023e+00,-1.413726806640625000e+01,9.651184082031250000e+00,-8.911132812500000000e+00
3.225368809700012207e+01,9.315838813781738281e+00,-4.084507942199707031e+00,2.628833532333374023e+00,-1.068115234375000000e+01,4.142761230468750000e+00,-2.525329589843750000e+00
3.226495695114135742e+01,9.390058517456056464e+00,-4.290409564971923828e+00,2.628833532333374023e+00,-1.068115234375000000e+01,2.212524414062500000e+00,-2.525329589843750000e+00
3.228267025947570801e+01,9.217676162719726562e+00,-4.074931144714356357e+00,3.196259260177612305e+00,-1.037597656250000000e+01,6.179809570312500000e-01,-2.746582031250000000e-01
3.229363369941711426e+01,9.208099365234376776e+00,-4.019864559173583984e+00,3.196259260177612305e+00,-1.190185546875000000e+01,2.212524414062500000e+00,1.541137695312500000e+00
3.230661773681640625e+01,8.348581314086914062e+00,-4.019864559173583984e+00,2.774879693984985352e+00,-1.190185546875000000e+01,6.179809570312500000e-01,1.541137695312500000e+00
3.232164287567138672e+01,8.348581314086914062e+00,-4.589684486389160156e+00,2.736572504043579102e+00,-1.407623291015625000e+01,1.068115234375000000e+00,-2.372741699218750000e+00
3.233398127555847168e+01,8.786720275878906250e+00,-4.589684486389160156e+00,2.736572504043579102e+00,-1.407623291015625000e+01,1.068115234375000000e+00,-7.751464843750000000e+00
3.234884786605834961e+01,9.366116523742675781e+00,-4.101267337799071377e+00,2.736572504043579102e+00,-1.242828369140625000e+01,1.068115234375000000e+00,-7.751464843750000000e+00
3.236380410194396973e+01,9.006986618041992188e+00,-3.952826976776123047e+00,2.657563924789428711e+00,-1.033020019531250000e+01,-2.334594726562500000e+00,1.060485839843750000e+00
3.237623476982116699e+01,9.006986618041992188e+00,-3.823539972305298296e+00,2.200271368026733398e+00,-8.056640625000000000e+00,-2.334594726562500000e+00,2.029418945312500000e+00
3.238759708404541016e+01,8.544905662536621094e+00,-3.823539972305298296e+00,2.657563924789428711e+00,-6.111145019531250000e+00,-2.334594726562500000e+00,4.165649414062500000e+00
3.240547657012939453e+01,7.943961143493652344e+00,-3.823539972305298296e+00,2.410961151123046875e+00,-4.844665527343750000e+00,-5.477905273437500000e+00,4.646301269531250000e+00
3.241676211357116699e+01,7.943961143493652344e+00,-3.780444383621216264e+00,2.410961151123046875e+00,-4.844665527343750000e+00,-5.477905273437500000e+00,4.646301269531250000e+00
3.243014979362487793e+01,8.238448143005371094e+00,-3.780444383621216264e+00,2.410961151123046875e+00,-1.000213623046875000e+01,-4.333496093750000000e+00,4.394531250000000000e+00
3.244590592384338379e+01,8.482656478881835938e+00,-4.185064315795897549e+00,2.396595954895019531e+00,-1.401519775390625000e+01,-2.693176269531250000e+00,3.738403320312500000e+00
3.245812225341796875e+01,8.501810073852539062e+00,-4.359841346740723544e+00,2.291250944137572798e+00,-1.401519775390625000e+01,-1.609802246093750000e+00,3.448486328125000000e+00
3.247242212295532227e+01,9.200917243957519531e+00,-4.235342502593993252e+00,2.264914751052856445e+00,-1.279449462890625000e+01,-1.609802246093750000e+00,3.379821777343750000e+00
3.248425936698913574e+01,9.200917243957519531e+00,-4.350264549255371094e+00,2.264914751052856445e+00,-1.073455810546875000e+01,-2.044677734375000000e+00,3.379821777343750000e+00
3.249852013587951660e+01,9.030928611755372870e+00,-4.350264549255371094e+00,2.171540975570678711e+00,-9.490966796875000000e+00,-2.639770507812500000e+00,4.898071289062500000e+00
3.251083302497863770e+01,7.987056732177733487e+00,-4.350264549255371094e+00,2.250549554824829102e+00,-4.219055175781250000e+00,-3.089904785156250000e+00,4.898071289062500000e+00
3.252579045295715332e+01,7.881711959838867188e+00,-4.096478939056396484e+00,2.250549554824829102e+00,-4.219055175781250000e+00,-3.089904785156250000e+00,2.479553222656250000e+00
3.253824806213378906e+01,7.881711959838867188e+00,-3.964797973632812944e+00,2.686294317245483398e+00,-7.446289062500000000e+00,-3.646850585937500000e+00,2.174377441406250000e+00
3.255278587341308594e+01,9.200917243957519531e+00,-3.806780576705932617e+00,2.949656486511230469e+00,-7.446289062500000000e+00,-3.646850585937500000e+00,2.174377441406250000e+00
3.256513071060180664e+01,9.200917243957519531e+00,-3.960009574890136719e+00,2.949656486511230469e+00,-6.019592285156250000e+00,-3.646850585937500000e+00,5.523681640625000000e+00
3.258055591583251953e+01,9.200917243957519531e+00,-3.960009574890136719e+00,2.511517524719238281e+00,-6.019592285156250000e+00,-9.231567382812500000e+00,6.111145019531250000e+00
3.259193825721740723e+01,9.284713745117187500e+00,-4.230554103851318359e+00,2.437297344207764116e+00,-6.019592285156250000e+00,-4.257202148437500000e+00,6.111145019531250000e+00
3.260809922218322754e+01,9.284713745117187500e+00,-4.230554103851318359e+00,2.511517524719238281e+00,-7.469177246093750000e+00,-4.257202148437500000e+00,6.690979003906250000e+00
3.262260174751281738e+01,8.743624687194824219e+00,-4.110844135284423828e+00,2.116474151611328125e+00,-5.500793457031250000e+00,-4.257202148437500000e+00,7.217407226562500000e+00
3.263390684127807617e+01,8.743624687194824219e+00,-4.110844135284423828e+00,2.585737705230712891e+00,-7.469177246093750000e+00,-8.369445800781250000e+00,1.053619384765625000e+01
3.264847326278686523e+01,8.209717750549316406e+00,-4.110844135284423828e+00,2.109291553497314453e+00,-5.500793457031250000e+00,-8.628845214843750000e+00,1.283264160156250000e+01
3.266108107566833496e+01,8.286332130432128906e+00,-4.165910720825194424e+00,2.667140722274780273e+00,-6.851196289062500000e+00,-8.392333984375000000e+00,1.283264160156250000e+01
3.267623281478881836e+01,8.171410560607910156e+00,-4.165910720825194424e+00,1.872265696525573508e+00,-5.950927734375000000e+00,-8.392333984375000000e+00,1.015472412109375000e+01
3.268881916999816895e+01,8.286332130432128906e+00,-4.278438568115233487e+00,2.003946781158447710e+00,-6.851196289062500000e+00,-1.869201660156250000e+00,4.341125488281250000e+00
3.270390415191650391e+01,8.513781547546388495e+00,-4.611232280731201172e+00,2.003946781158447710e+00,-5.950927734375000000e+00,-1.098632812500000000e+00,1.205444335937500000e+00
3.271788120269775391e+01,8.949525833129882812e+00,-4.321534156799316406e+00,2.243366956710815430e+00,-5.165100097656250000e+00,-9.307861328125000000e-01,1.205444335937500000e+00
3.273012757301330566e+01,8.949525833129882812e+00,-4.321534156799316406e+00,2.470816135406494141e+00,-3.562927246093750000e+00,-9.307861328125000000e-01,4.257202148437500000e+00
3.274600529670715332e+01,8.901641845703125000e+00,-4.122815132141113281e+00,2.470816135406494141e+00,-9.155273437500000000e-01,-4.272460937500000000e-01,4.257202148437500000e+00
3.275709843635559082e+01,8.901641845703125000e+00,-4.122815132141113281e+00,2.336740732192993164e+00,-9.155273437500000000e-01,-4.272460937500000000e-01,4.135131835937500000e+00
3.277181601524353027e+01,8.358158111572267401e+00,-4.517858505249023438e+00,2.300827741622924805e+00,-6.721496582031250000e+00,-4.272460937500000000e-01,4.135131835937500000e+00
3.278508830070495605e+01,8.358158111572267401e+00,-4.517858505249023438e+00,1.975216388702392800e+00,-6.721496582031250000e+00,-7.858276367187500000e-01,4.135131835937500000e+00
3.279968428611755371e+01,8.238448143005371094e+00,-4.553771495819091797e+00,1.908178687095641868e+00,-6.301879882812500000e+00,-5.485534667968750000e+00,4.257202148437500000e+00
3.281073117256164551e+01,8.238448143005371094e+00,-4.405331134796143466e+00,1.908178687095641868e+00,-3.631591796875000000e+00,-7.385253906250000000e+00,8.628845214843750000e+00
3.282860088348388672e+01,8.372523307800292969e+00,-4.405331134796143466e+00,2.243366956710815430e+00,-2.777099609375000000e+00,-7.385253906250000000e+00,8.628845214843750000e+00
3.283971667289733887e+01,8.372523307800292969e+00,-4.297592163085937500e+00,2.284068346023560014e+00,-1.434326171875000000e+00,-5.882263183593750000e+00,5.889892578125000000e+00
3.285340452194213867e+01,8.681375503540039062e+00,-4.292803764343261719e+00,2.379836559295654297e+00,-1.434326171875000000e+00,2.639770507812500000e+00,-5.882263183593750000e+00
3.287042832374572754e+01,9.071630477905273438e+00,-4.297592163085937500e+00,2.379836559295654297e+00,-2.609252929687500000e+00,3.288269042968750000e+00,-5.882263183593750000e+00
3.288158893585205078e+01,9.071630477905273438e+00,-4.125209331512451172e+00,2.379836559295654297e+00,-2.609252929687500000e+00,3.288269042968750000e+00,-5.630493164062500000e+00
3.289500331878662109e+01,9.035717010498046875e+00,-4.429273128509521484e+00,2.238578557968140093e+00,-2.609252929687500000e+00,2.235412597656250000e+00,-3.234863281250000000e+00
3.290983629226684570e+01,9.035717010498046875e+00,-4.654327869415283203e+00,2.238578557968140093e+00,-3.433227539062500000e+00,2.235412597656250000e+00,-1.808166503906250000e+00
3.292214202880859375e+01,9.035717010498046875e+00,-4.654327869415283203e+00,2.238578557968140093e+00,-3.433227539062500000e+00,2.235412597656250000e+00,1.571655273437500000e+00
3.293424987792968750e+01,8.358158111572267401e+00,-4.733336448669433594e+00,2.437297344207764116e+00,-8.010864257812500000e-01,2.586364746093750000e+00,1.571655273437500000e+00
3.295167231559753418e+01,7.817068576812744141e+00,-4.158728122711181641e+00,2.437297344207764116e+00,-7.629394531250000000e-01,5.096435546875000000e+00,-2.922058105468750000e+00
3.296276259422302246e+01,7.817068576812744141e+00,-4.525041103363037109e+00,2.437297344207764116e+00,2.288818359375000000e-01,7.461547851562500000e+00,-8.422851562500000000e+00
3.297666645050048828e+01,7.817068576812744141e+00,-3.813963174819945401e+00,2.188300371170043945e+00,9.536743164062500000e-01,7.461547851562500000e+00,-8.422851562500000000e+00
3.299042510986328125e+01,8.439560890197753906e+00,-4.525041103363037109e+00,2.025494575500488281e+00,9.536743164062500000e-01,3.028869628906250000e+00,-3.417968750000000000e+00
3.300272464752197266e+01,8.439560890197753906e+00,-4.120420932769774502e+00,2.025494575500488281e+00,1.579284667968750000e+00,3.028869628906250000e+00,-3.417968750000000000e+00
3.301784682273864746e+01,8.614337921142576349e+00,-4.141968727111816406e+00,1.556231021881103516e+00,1.579284667968750000e+00,3.700256347656250000e+00,-4.196166992187500000e+00
3.303225493431091309e+01,8.614337921142576349e+00,-4.141968727111816406e+00,1.556231021881103516e+00,1.579284667968750000e+00,8.071899414062500000e+00,-1.050567626953125000e+01
3.304477190971374512e+01,8.743624687194824219e+00,-4.388571739196776456e+00,2.643198728561401367e+00,3.814697265625000000e-01,8.071899414062500000e+00,-1.050567626953125000e+01
3.305767893791198730e+01,9.191340446472167969e+00,-4.407725334167480469e+00,2.643198728561401367e+00,3.814697265625000000e-01,8.071899414062500000e+00,-9.750366210937500000e+00
3.307205772399902344e+01,9.373299598693847656e+00,-4.599261283874511719e+00,1.118092179298400879e+00,8.628845214843750000e+00,1.300811767578125000e+01,-9.750366210937500000e+00
3.308665442466735840e+01,9.373299598693847656e+00,-5.511452198028564453e+00,4.022258818149567206e-01,2.124023437500000000e+01,2.050018310546875000e+01,-1.120758056640625000e+01
3.309928345680236816e+01,9.373299598693847656e+00,-5.511452198028564453e+00,1.118092179298400879e+00,3.466796875000000000e+01,2.293395996093750000e+01,-1.969909667968750000e+01
3.311467623710632324e+01,8.255207061767576349e+00,-4.671087265014648438e+00,2.257732152938842773e+00,3.614044189453125000e+01,2.349853515625000000e+01,-3.118896484375000000e+01
3.312606263160705566e+01,7.529764175415039062e+00,-4.671087265014648438e+00,2.257732152938842773e+00,4.403686523437500000e+01,2.481842041015625000e+01,-4.571533203125000000e+01
3.314112043380737305e+01,7.529764175415039062e+00,-4.671087265014648438e+00,3.878606796264647993e+00,6.710052490234375000e+01,2.481842041015625000e+01,-5.304718017578125000e+01
3.315379571914672852e+01,9.430760383605957031e+00,-4.412513732910156250e+00,1.721431016921996848e+00,7.001495361328125000e+01,1.948547363281250000e+01,-5.304718017578125000e+01
3.316823124885559082e+01,9.430760383605957031e+00,-4.412513732910156250e+00,1.889025092124938965e+00,9.090423583984376421e+01,1.147460937500000000e+01,-4.354095458984375000e+01
3.318253445625305176e+01,8.911218643188476562e+00,-4.795586109161376953e+00,1.096544384956360085e+00,1.157150268554687642e+02,1.147460937500000000e+01,-1.488494873046875000e+01
3.319476485252380371e+01,6.229712486267089844e+00,-6.069301128387451172e+00,-4.086902141571044922e+00,1.734771728515625000e+02,2.688598632812500000e+01,-1.488494873046875000e+01
3.321156573295593262e+01,6.229712486267089844e+00,-6.069301128387451172e+00,-4.086902141571044922e+00,2.499923706054687500e+02,2.499923706054687500e+02,-6.965637207031250000e+00
3.322231698036193848e+01,-5.889735817909240723e-01,-2.269703149795531782e+00,-1.498770236968993963e+01,2.499923706054687500e+02,2.499923706054687500e+02,-2.236480712890625000e+02
3.323774003982543945e+01,1.664209556579590199e+01,1.136766910552978516e+01,1.024718284606933594e+00,2.499923706054687500e+02,2.499923706054687500e+02,-1.958465576171875000e+01
3.324993348121643066e+01,1.664209556579590199e+01,1.136766910552978516e+01,1.024718284606933594e+00,2.499923706054687500e+02,1.114349365234375000e+02,-2.434463500976562500e+02
3.326443839073181152e+01,1.961270141601562500e+01,1.606748771667480469e+01,1.961270141601562500e+01,2.289505004882812500e+02,-1.062774658203125000e+01,-1.958465576171875000e+01
3.327901601791381836e+01,1.961270141601562500e+01,1.606748771667480469e+01,1.961270141601562500e+01,-2.483825683593750000e+02,6.684112548828125000e+01,1.220855712890625000e+02
3.329183030128479004e+01,9.576806798577308655e-03,-1.032379722595214844e+01,-1.003170490264892578e+01,-2.483825683593750000e+02,1.805114746093750000e+01,1.220855712890625000e+02
3.330548977851867676e+01,9.576806798577308655e-03,-1.032379722595214844e+01,-1.003170490264892578e+01,-3.822326660156250000e+00,1.805114746093750000e+01,4.119873046875000000e-01
3.331786370277404785e+01,8.178592681884767401e+00,-4.333505153656006748e+00,1.125274777412414551e+00,8.213043212890625000e+01,6.103515625000000000e-01,-3.082275390625000000e+01
3.333366847038269043e+01,9.251194953918457031e+00,2.640804529190063477e+00,7.750030994415282315e+00,8.213043212890625000e+01,-2.746582031250000000e-01,-1.666259765625000000e+01
3.334849429130554199e+01,1.083376216888427557e+01,2.640804529190063477e+00,7.750030994415282315e+00,2.254486083984375000e+01,6.103515625000000000e-01,-1.666259765625000000e+01
3.336003756523132324e+01,1.083376216888427557e+01,5.913677811622620739e-01,5.544970989227294922e+00,-1.962280273437500000e+01,-2.746582031250000000e-01,1.161193847656250000e+01
3.337603211402893066e+01,8.511386871337888849e+00,-1.371877551078796387e+00,4.967968463897705078e+00,-1.962280273437500000e+01,-1.335144042968750000e+00,1.219177246093750000e+01
3.338698029518127441e+01,7.627926349639892578e+00,-1.527500629425048828e+00,3.517082214355468750e+00,-1.522827148437500000e+01,-1.335144042968750000e+00,1.219177246093750000e+01
3.340183830261230469e+01,8.511386871337888849e+00,-1.527500629425048828e+00,3.517082214355468750e+00,2.868652343750000000e+00,7.629394531250000000e-02,1.495361328125000000e+00
3.341619563102722168e+01,9.421183586120603692e+00,3.112462162971496929e-02,4.568136692047119141e+00,2.868652343750000000e+00,4.272460937500000000e+00,-5.470275878906250000e+00
3.342941522598266602e+01,9.421183586120603692e+00,3.112462162971496929e-02,4.568136692047119141e+00,-3.120422363281250000e+00,4.730224609375000000e-01,1.495361328125000000e+00
3.344384884834289551e+01,9.138668060302734375e+00,-1.228225469589233398e+00,3.878606796264647993e+00,-3.120422363281250000e+00,2.319335937500000000e+00,-5.470275878906250000e+00
3.345841622352600098e+01,8.607154846191406250e+00,-1.539471626281738503e+00,3.878606796264647993e+00,1.899719238281250000e+00,2.319335937500000000e+00,-3.417968750000000000e+00
3.347064089775085449e+01,8.607154846191406250e+00,-1.539471626281738503e+00,4.639962673187255859e+00,2.944946289062500000e+00,2.319335937500000000e+00,-3.417968750000000000e+00
3.348297834396362305e+01,9.258378028869627130e+00,-1.283292055130004883e+00,4.639962673187255859e+00,2.944946289062500000e+00,2.616882324218750000e+00,-2.922058105468750000e+00
3.350038981437683105e+01,9.258378028869627130e+00,-1.283292055130004883e+00,4.551377296447753906e+00,-2.990722656250000000e+00,2.304077148437500000e+00,-9.536743164062500000e-01
3.351182222366333008e+01,8.262390136718750000e+00,-1.853112101554870383e+00,4.153939723968506748e+00,-2.990722656250000000e+00,2.304077148437500000e+00,8.697509765625000000e-01
3.352558255195617676e+01,8.262390136718750000e+00,-1.853112101554870383e+00,3.849876165390015093e+00,2.372741699218750000e+00,2.304077148437500000e+00,-9.536743164062500000e-01
3.353939247131347656e+01,8.995016098022460938e+00,-1.616086125373840332e+00,3.849876165390015093e+00,2.372741699218750000e+00,3.189086914062500000e+00,-6.881713867187500000e+00
3.355200529098510742e+01,9.323020935058593750e+00,-1.350329756736755371e+00,4.522646903991699219e+00,1.449584960937500000e-01,3.189086914062500000e+00,-6.881713867187500000e+00
3.356763768196105957e+01,9.323020935058593750e+00,-1.350329756736755371e+00,4.522646903991699219e+00,1.449584960937500000e-01,3.189086914062500000e+00,-1.167297363281250000e+00
3.358166956901550293e+01,9.090784072875976562e+00,-1.991975784301757590e+00,4.146757125854491299e+00,9.155273437500000000e-02,3.372192382812500000e+00,-1.167297363281250000e+00
3.359413838386535645e+01,9.090784072875976562e+00,-1.991975784301757590e+00,4.146757125854491299e+00,7.705688476562500000e-01,3.372192382812500000e+00,-3.089904785156250000e+00
3.360637903213500977e+01,8.975861549377441406e+00,-1.304839849472045898e+00,4.244919776916503906e+00,6.637573242187500000e-01,3.692626953125000000e+00,-3.860473632812500000e+00
3.362367296218872070e+01,8.975861549377441406e+00,-1.209071874618530495e+00,4.422090530395507812e+00,6.637573242187500000e-01,1.472473144531250000e+00,-3.089904785156250000e+00
3.363459277153015137e+01,8.559270858764646661e+00,-1.304839849472045898e+00,4.244919776916503906e+00,6.637573242187500000e-01,-3.509521484375000000e-01,9.155273437500000000e-01
3.364807629585266113e+01,8.559270858764646661e+00,-1.848323702812194824e+00,3.883395195007323775e+00,2.365112304687500000e-01,-3.509521484375000000e-01,9.155273437500000000e-01
3.366293263435363770e+01,8.777143478393554688e+00,-1.848323702812194824e+00,3.883395195007323775e+00,1.190185546875000000e+00,2.090454101562500000e+00,-4.196166992187500000e+00
3.367555427551269531e+01,8.870516777038574219e+00,-1.333570361137389915e+00,4.436455726623535156e+00,1.190185546875000000e+00,2.090454101562500000e+00,-4.196166992187500000e+00
3.368974685668945312e+01,9.045293807983398438e+00,-1.333570361137389915e+00,4.436455726623535156e+00,1.190185546875000000e+00,2.090454101562500000e+00,-3.356933593750000000e+00
3.370264649391174316e+01,8.870516777038574219e+00,-1.889025092124938965e+00,4.259284973144531250e+00,4.959106445312500000e-01,2.082824707031250000e+00,-3.356933593750000000e+00
3.371765327453613281e+01,8.997409820556640625e+00,-1.889025092124938965e+00,4.259284973144531250e+00,4.959106445312500000e-01,2.082824707031250000e+00,-3.356933593750000000e+00
3.373635816574096680e+01,8.815450668334960938e+00,-9.026139974594116211e-01,4.259284973144531250e+00,2.449035644531250000e+00,2.082824707031250000e+00,-2.998352050781250000e+00
3.374742221832275391e+01,8.815450668334960938e+00,-9.026139974594116211e-01,4.139574527740479404e+00,2.449035644531250000e+00,2.479553222656250000e+00,-2.998352050781250000e+00
3.375881409645080566e+01,8.748413085937500000e+00,-9.026139974594116211e-01,4.139574527740479404e+00,-1.968383789062500000e+00,2.479553222656250000e+00,-2.998352050781250000e+00
3.377083897590637207e+01,8.566453933715820312e+00,-1.132457375526428223e+00,4.139574527740479404e+00,-1.968383789062500000e+00,2.021789550781250000e+00,-3.593444824218750000e+00
3.378668713569641113e+01,8.566453933715820312e+00,-1.628057122230529785e+00,4.055777549743651456e+00,8.010864257812500000e-01,1.243591308593750000e+00,-2.433776855468750000e+00
3.379808044433593750e+01,9.054870605468750000e+00,-1.628057122230529785e+00,4.055777549743651456e+00,8.010864257812500000e-01,1.296997070312500000e+00,-2.433776855468750000e+00
3.381331086158752441e+01,9.208099365234376776e+00,-1.505952835083007812e+00,4.216188907623291016e+00,-2.059936523437500000e-01,1.296997070312500000e+00,-2.433776855468750000e+00
3.382793474197387695e+01,9.208099365234376776e+00,-1.505952835083007812e+00,4.690240859985351562e+00,-2.975463867187500000e-01,2.815246582031250000e+00,-2.685546875000000000e+00
3.384030580520629883e+01,8.705317497253417969e+00,-1.505952835083007812e+00,4.865017890930175781e+00,-2.975463867187500000e-01,2.815246582031250000e+00,-2.685546875000000000e+00
3.385488176345825195e+01,8.705317497253417969e+00,-1.249773263931274414e+00,4.865017890930175781e+00,2.357482910156250000e+00,2.815246582031250000e+00,-2.685546875000000000e+00
3.386774706840515137e+01,8.655038833618164062e+00,-1.187524080276489258e+00,4.845864295959472656e+00,2.357482910156250000e+00,3.532409667968750000e+00,-3.852844238281250000e+00
3.388215160369873047e+01,8.643068313598632812e+00,-1.187524080276489258e+00,4.769249916076660156e+00,-4.806518554687500000e-01,3.532409667968750000e+00,-3.852844238281250000e+00
3.389659953117370605e+01,8.511386871337888849e+00,-1.187524080276489258e+00,4.769249916076660156e+00,-4.806518554687500000e-01,-1.213073730468750000e+00,1.411437988281250000e+00
3.390860271453857422e+01,8.511386871337888849e+00,-1.821987509727478027e+00,4.292803764343261719e+00,-4.806518554687500000e-01,-1.213073730468750000e+00,1.411437988281250000e+00
3.392496514320373535e+01,8.683769226074218750e+00,-1.821987509727478027e+00,4.292803764343261719e+00,2.510070800781250000e+00,-1.213073730468750000e+00,1.350402832031250000e+00
3.393636441230773926e+01,8.686163902282714844e+00,-1.742978811264038086e+00,4.292803764343261719e+00,1.510620117187500000e+00,-4.196166992187500000e-01,-1.411437988281250000e+00
3.395139431953430176e+01,8.863334655761718750e+00,-1.683123707771301270e+00,4.553771495819091797e+00,1.510620117187500000e+00,-2.685546875000000000e+00,1.350402832031250000e+00
3.396679711341857910e+01,8.863334655761718750e+00,-1.683123707771301270e+00,3.974374771118163618e+00,1.510620117187500000e+00,-2.685546875000000000e+00,9.078979492187500000e-01
3.397825074195861816e+01,8.863334655761718750e+00,-1.343147158622741699e+00,3.974374771118163618e+00,-4.653930664062500000e-01,-2.685546875000000000e+00,9.078979492187500000e-01
3.399383306503295898e+01,9.217676162719726562e+00,-1.137245774269104004e+00,3.974374771118163618e+00,-4.653930664062500000e-01,1.060485839843750000e+00,-1.541137695312500000e+00
3.400617909431457520e+01,8.777143478393554688e+00,-1.343147158622741699e+00,4.788403511047363281e+00,-4.653930664062500000e-01,3.005981445312500000e+00,-2.311706542968750000e+00
3.402011322975158691e+01,8.549694061279298651e+00,-1.142034173011779785e+00,4.788403511047363281e+00,1.068115234375000000e+00,3.005981445312500000e+00,-2.311706542968750000e+00
3.403196930885314941e+01,8.549694061279298651e+00,-1.426944136619568093e+00,4.271255970001221591e+00,1.068115234375000000e+00,3.005981445312500000e+00,-2.311706542968750000e+00
3.404966831207275391e+01,8.554482460021972656e+00,-1.142034173011779785e+00,4.271255970001221591e+00,2.822875976562500000e-01,-3.547668457031250000e+00,3.166198730468750000e+00
3.406214618682861328e+01,9.227252960205078125e+00,-1.467645645141601562e+00,4.271255970001221591e+00,2.822875976562500000e-01,-1.838684082031250000e+00,-2.746582031250000000e-01
3.407451510429382324e+01,8.554482460021972656e+00,-1.467645645141601562e+00,4.115632534027100498e+00,2.441406250000000000e-01,-1.838684082031250000e+00,-2.746582031250000000e-01
3.409157657623291016e+01,8.796297073364257812e+00,-1.467645645141601562e+00,4.115632534027100498e+00,4.806518554687500000e-01,-1.838684082031250000e+00,-2.746582031250000000e-01
3.410348081588745117e+01,8.616731643676757812e+00,-1.587355732917785645e+00,4.115632534027100498e+00,4.806518554687500000e-01,-8.392333984375000000e-01,-2.929687500000000000e+00
3.411580514907836914e+01,8.796297073364257812e+00,-1.391031146049499512e+00,4.299986362457274502e+00,4.806518554687500000e-01,-1.266479492187500000e+00,1.152038574218750000e+00
3.413039326667785645e+01,9.184157371520996094e+00,-1.391031146049499512e+00,4.230554103851318359e+00,2.365112304687500000e+00,-1.022338867187500000e+00,8.392333984375000000e-02
3.414287304878234863e+01,9.184157371520996094e+00,-1.106121182441711426e+00,4.230554103851318359e+00,-1.945495605468750000e+00,-1.022338867187500000e+00,8.392333984375000000e-02
3.415779423713684082e+01,8.662221908569335938e+00,-1.106121182441711426e+00,4.230554103851318359e+00,1.464843750000000000e+00,-1.022338867187500000e+00,8.392333984375000000e-02
3.417267584800720215e+01,8.662221908569335938e+00,-1.106121182441711426e+00,4.206612110137940341e+00,1.464843750000000000e+00,1.701354980468750000e+00,2.441406250000000000e-01
3.418518948554992676e+01,8.662221908569335938e+00,-1.443703651428222878e+00,4.386177539825440341e+00,1.464843750000000000e+00,1.701354980468750000e+00,2.441406250000000000e-01
3.419708752632141113e+01,8.420407295227049005e+00,-1.027112483978271706e+00,4.386177539825440341e+00,-1.579284667968750000e+00,1.701354980468750000e+00,2.441406250000000000e-01
3.421440362930297852e+01,8.420407295227049005e+00,-1.443703651428222878e+00,4.386177539825440341e+00,-1.579284667968750000e+00,-1.281738281250000000e+00,1.602172851562500000e-01
3.422699689865112305e+01,9.033323287963867188e+00,-8.092401623725891113e-01,4.515464305877685547e+00,-3.128051757812500000e-01,-1.281738281250000000e+00,1.602172851562500000e-01
3.423970317840576172e+01,9.143456459045410156e+00,-7.230489253997802734e-01,4.515464305877685547e+00,4.196166992187500000e-01,-4.348754882812500000e-01,1.602172851562500000e-01
3.425631213188171387e+01,9.143456459045410156e+00,-7.230489253997802734e-01,4.515464305877685547e+00,-3.128051757812500000e-01,-4.348754882812500000e-01,8.316040039062500000e-01
3.426968908309936523e+01,8.626308441162111151e+00,-1.398213744163513184e+00,3.744531393051147905e+00,2.746582031250000000e-01,-4.348754882812500000e-01,8.316040039062500000e-01
3.428109431266784668e+01,8.511386871337888849e+00,-1.398213744163513184e+00,3.744531393051147905e+00,2.746582031250000000e-01,-2.288818359375000000e+00,1.922607421875000000e+00
3.429551935195922852e+01,8.626308441162111151e+00,-7.709329128265380859e-01,3.847481966018676758e+00,2.975463867187500000e-01,-2.288818359375000000e-01,3.662109375000000000e-01
3.430811262130737305e+01,8.511386871337888849e+00,-7.709329128265380859e-01,4.412513732910156250e+00,2.975463867187500000e-01,-2.288818359375000000e-01,3.662109375000000000e-01
3.432398748397827148e+01,8.494627952575683594e+00,-1.204283475875854492e+00,3.881000995635985440e+00,-6.713867187500000000e-01,1.029968261718750000e+00,3.662109375000000000e-01
3.433504462242126465e+01,8.494627952575683594e+00,-1.726219415664672852e+00,4.247313976287841797e+00,-6.713867187500000000e-01,1.029968261718750000e+00,1.220703125000000000e-01
3.434980249404907227e+01,8.530540466308593750e+00,-1.726219415664672852e+00,4.247313976287841797e+00,3.211975097656250000e+00,3.814697265625000000e-02,1.068115234375000000e-01
3.436528205871582031e+01,8.906430244445800781e+00,-9.145850539207458496e-01,4.338293552398681641e+00,3.211975097656250000e+00,3.814697265625000000e-02,1.525878906250000000e-02
3.437679266929626465e+01,9.069235801696775567e+00,-9.145850539207458496e-01,4.338293552398681641e+00,-1.441955566406250000e+00,2.822875976562500000e-01,1.525878906250000000e-02
3.439258074760437012e+01,8.906430244445800781e+00,-1.685518026351928711e+00,4.261679172515868252e+00,-1.441955566406250000e+00,2.822875976562500000e-01,-2.288818359375000000e-01
3.440409278869628906e+01,8.906430244445800781e+00,-1.685518026351928711e+00,4.261679172515868252e+00,1.998901367187500000e+00,-1.068115234375000000e-01,-1.296997070312500000e+00
3.441864109039306641e+01,8.906430244445800781e+00,-1.295263051986694336e+00,4.378994941711426669e+00,1.998901367187500000e+00,-3.585815429687500000e-01,-1.296997070312500000e+00
3.443121409416198730e+01,8.623914718627929688e+00,-9.744400978088380016e-01,4.378994941711426669e+00,1.907348632812500000e+00,-1.068115234375000000e-01,-9.155273437500000000e-02
3.444640684127807617e+01,8.516175270080566406e+00,-9.744400978088380016e-01,4.223371505737305576e+00,-1.068115234375000000e+00,-8.697509765625000000e-01,3.509521484375000000e-01
3.446101856231689453e+01,8.516175270080566406e+00,-1.391031146049499512e+00,4.223371505737305576e+00,-1.068115234375000000e+00,2.517700195312500000e+00,-9.155273437500000000e-02
3.447350168228149414e+01,8.813055992126464844e+00,-1.391031146049499512e+00,4.249708175659180576e+00,1.480102539062500000e+00,-9.231567382812500000e-01,3.509521484375000000e-01
3.448790431022644043e+01,8.856151580810546875e+00,-1.185129880905151367e+00,4.407725334167480469e+00,1.480102539062500000e+00,2.517700195312500000e+00,-1.792907714843750000e+00
3.449996757507324219e+01,8.896853446960449219e+00,-1.185129880905151367e+00,4.407725334167480469e+00,-4.196166992187500000e-01,-1.907348632812500000e-01,6.332397460937500000e-01
3.451451230049133301e+01,8.896853446960449219e+00,-1.374271750450134499e+00,4.261679172515868252e+00,-4.196166992187500000e-01,-1.907348632812500000e-01,-2.288818359375000000e-02
3.452712559700012207e+01,8.896853446960449219e+00,-1.374271750450134499e+00,4.158728122711181641e+00,9.689331054687500000e-01,-1.907348632812500000e-01,-2.288818359375000000e-02
3.454181838035583496e+01,8.978256225585937500e+00,-1.259350061416625977e+00,4.158728122711181641e+00,9.689331054687500000e-01,4.653930664062500000e-01,-2.288818359375000000e-02
3.455782294273376465e+01,8.978256225585937500e+00,-1.235408067703247070e+00,4.374206542968750000e+00,-1.144409179687500000e-01,8.239746093750000000e-01,2.746582031250000000e-01
3.456880235671997070e+01,8.506598472595214844e+00,-1.235408067703247070e+00,4.374206542968750000e+00,-1.144409179687500000e-01,4.653930664062500000e-01,2.746582031250000000e-01
3.458425354957580566e+01,8.506598472595214844e+00,-1.362300753593444824e+00,4.254496574401856357e+00,-4.577636718750000000e-02,-9.460449218750000000e-01,2.746582031250000000e-01
3.459666824340820312e+01,8.781931877136230469e+00,-1.362300753593444824e+00,4.254496574401856357e+00,6.484985351562500000e-01,-9.460449218750000000e-01,7.247924804687500000e-01
3.461086130142211914e+01,8.839392662048339844e+00,-1.362300753593444824e+00,4.228159904479980469e+00,6.484985351562500000e-01,1.525878906250000000e-01,7.247924804687500000e-01
3.462660574913024902e+01,8.839392662048339844e+00,-1.431732535362243652e+00,4.350264549255371094e+00,1.144409179687500000e-01,1.525878906250000000e-01,4.043579101562500000e-01
3.463908362388610840e+01,8.884881973266601562e+00,-1.431732535362243652e+00,4.292803764343261719e+00,1.144409179687500000e-01,-4.882812500000000000e-01,1.525878906250000000e-01
3.465373730659484863e+01,8.884881973266601562e+00,-1.292868852615356445e+00,4.292803764343261719e+00,7.247924804687500000e-01,-4.882812500000000000e-01,1.525878906250000000e-01
3.466514062881469727e+01,8.995016098022460938e+00,-1.182735562324524148e+00,4.292803764343261719e+00,7.247924804687500000e-01,6.866455078125000000e-02,1.525878906250000000e-01
3.468262410163879395e+01,8.995016098022460938e+00,-1.182735562324524148e+00,4.278438568115233487e+00,7.247924804687500000e-01,6.866455078125000000e-02,1.602172851562500000e-01
3.469381380081176758e+01,8.789113998413085938e+00,-1.053448677062988503e+00,4.237736701965332031e+00,3.128051757812500000e-01,6.866455078125000000e-02,1.602172851562500000e-01
3.470711088180541992e+01,8.789113998413085938e+00,-1.204283475875854492e+00,4.237736701965332031e+00,1.098632812500000000e+00,1.525878906250000000e-01,-7.095336914062500000e-01
3.472467827796936035e+01,8.894458770751953125e+00,-1.053448677062988503e+00,4.256890773773193359e+00,3.128051757812500000e-01,2.212524414062500000e-01,-7.095336914062500000e-01
3.473591017723083496e+01,8.894458770751953125e+00,-1.249773263931274414e+00,4.256890773773193359e+00,6.103515625000000000e-02,1.525878906250000000e-01,1.296997070312500000e-01
3.474900817871093750e+01,8.863334655761718750e+00,-1.350329756736755371e+00,4.216188907623291016e+00,6.103515625000000000e-02,-6.179809570312500000e-01,4.043579101562500000e-01
3.476387238502502441e+01,8.863334655761718750e+00,-1.350329756736755371e+00,4.096478939056396484e+00,1.052856445312500000e+00,-6.179809570312500000e-01,4.043579101562500000e-01
3.477615261077880859e+01,8.863334655761718750e+00,-1.278503656387329102e+00,4.096478939056396484e+00,1.052856445312500000e+00,1.602172851562500000e-01,-3.280639648437500000e-01
3.479091024398803711e+01,8.877699851989746094e+00,-1.268926858901977539e+00,4.146757125854491299e+00,7.019042968750000000e-01,1.602172851562500000e-01,-3.280639648437500000e-01
3.480579638481140137e+01,8.597578048706054688e+00,-1.242590665817260742e+00,4.146757125854491299e+00,7.019042968750000000e-01,8.392333984375000000e-02,-3.280639648437500000e-01
3.481810092926025391e+01,8.798690795898437500e+00,-1.242590665817260742e+00,4.146757125854491299e+00,7.019042968750000000e-01,8.392333984375000000e-02,-6.484985351562500000e-01
3.483039212226867676e+01,8.798690795898437500e+00,-1.108515381813049094e+00,4.201823711395263672e+00,8.316040039062500000e-01,-1.831054687500000000e-01,-6.866455078125000000e-01
3.484773373603820801e+01,8.983044624328613281e+00,-1.108515381813049094e+00,4.201823711395263672e+00,5.798339843750000000e-01,-1.831054687500000000e-01,-6.866455078125000000e-01
3.485893988609313965e+01,8.983044624328613281e+00,-1.249773263931274414e+00,4.077325344085693359e+00,4.959106445312500000e-01,-1.831054687500000000e-01,-4.730224609375000000e-01
3.487255716323852539e+01,8.882488250732421875e+00,-1.249773263931274414e+00,4.077325344085693359e+00,4.959106445312500000e-01,5.111694335937500000e-01,-4.730224609375000000e-01
3.488949847221374512e+01,8.882488250732421875e+00,-1.228225469589233398e+00,4.127603530883788174e+00,6.103515625000000000e-01,5.111694335937500000e-01,-4.730224609375000000e-01
3.490067696571350098e+01,8.949525833129882812e+00,-1.228225469589233398e+00,4.141968727111816406e+00,6.103515625000000000e-01,5.569458007812500000e-01,-5.645751953125000000e-01
3.491404008865356445e+01,8.983044624328613281e+00,-1.271321058273315430e+00,4.141968727111816406e+00,-1.754760742187500000e-01,1.762390136718750000e+00,-3.051757812500000000e-01
3.492866325378417969e+01,8.983044624328613281e+00,-1.271321058273315430e+00,4.141968727111816406e+00,-4.806518554687500000e-01,1.762390136718750000e+00,-1.602172851562500000e-01
3.494091653823852539e+01,8.700529098510742188e+00,-1.242590665817260742e+00,4.230554103851318359e+00,-6.484985351562500000e-01,1.670837402343750000e+00,-1.602172851562500000e-01
3.495360255241394043e+01,8.700529098510742188e+00,-1.185129880905151367e+00,4.426878929138183594e+00,-4.806518554687500000e-01,1.457214355468750000e+00,-9.994506835937500000e-01
3.496809768676757812e+01,8.779537200927732599e+00,-1.185129880905151367e+00,4.426878929138183594e+00,-2.975463867187500000e-01,6.027221679687500000e-01,-9.994506835937500000e-01
3.498075509071350098e+01,8.813055992126464844e+00,-1.321599364280700906e+00,4.350264549255371094e+00,5.798339843750000000e-01,6.027221679687500000e-01,-9.994506835937500000e-01
3.499583077430725098e+01,8.887276649475097656e+00,-1.333570361137389915e+00,4.268861770629883701e+00,5.798339843750000000e-01,5.264282226562500000e-01,-1.983642578125000000e-01
3.501016831398010254e+01,9.050082206726074219e+00,-1.333570361137389915e+00,4.268861770629883701e+00,7.858276367187500000e-01,5.264282226562500000e-01,-1.113891601562500000e+00
3.502225852012634277e+01,9.050082206726074219e+00,-1.213860273361206055e+00,4.340687751770020419e+00,7.858276367187500000e-01,2.517700195312500000e-01,-1.983642578125000000e-01
3.503719449043273926e+01,8.717288017272950995e+00,-1.213860273361206055e+00,4.340687751770020419e+00,3.051757812500000000e-01,2.517700195312500000e-01,2.365112304687500000e-01
3.504805684089660645e+01,8.597578048706054688e+00,-1.273715257644653098e+00,4.158728122711181641e+00,3.051757812500000000e-01,7.629394531250000000e-02,2.365112304687500000e-01
3.506400370597839355e+01,8.597578048706054688e+00,-1.273715257644653098e+00,4.158728122711181641e+00,9.307861328125000000e-01,7.629394531250000000e-02,-7.629394531250000000e-01
3.507959675788879395e+01,9.004592895507812500e+00,-1.209071874618530495e+00,4.261679172515868252e+00,9.307861328125000000e-01,-2.593994140625000000e-01,-7.629394531250000000e-01
3.509052109718322754e+01,9.059659004211425781e+00,-1.209071874618530495e+00,4.261679172515868252e+00,5.645751953125000000e-01,-2.593994140625000000e-01,1.449584960937500000e-01
3.510583090782165527e+01,9.059659004211425781e+00,-1.364694952964782715e+00,4.254496574401856357e+00,1.220703125000000000e-01,6.790161132812500000e-01,1.449584960937500000e-01
3.511783456802368164e+01,8.856151580810546875e+00,-1.364694952964782715e+00,4.254496574401856357e+00,1.220703125000000000e-01,6.790161132812500000e-01,0.000000000000000000e+00
3.513325929641723633e+01,8.856151580810546875e+00,-1.063025593757629395e+00,4.254496574401856357e+00,8.697509765625000000e-01,1.373291015625000000e-01,0.000000000000000000e+00
3.514791440963745117e+01,8.748413085937500000e+00,-1.063025593757629395e+00,4.005499362945556641e+00,8.697509765625000000e-01,1.373291015625000000e-01,0.000000000000000000e+00
3.516030216217041016e+01,8.705317497253417969e+00,-1.199495077133178711e+00,4.005499362945556641e+00,4.882812500000000000e-01,1.373291015625000000e-01,-2.365112304687500000e-01
3.517545127868652344e+01,8.705317497253417969e+00,-1.297657251358032227e+00,4.113238334655761719e+00,4.882812500000000000e-01,-5.798339843750000000e-01,-2.365112304687500000e-01
3.518788266181945801e+01,8.999804496765136719e+00,-1.297657251358032227e+00,4.113238334655761719e+00,4.882812500000000000e-01,-5.798339843750000000e-01,-2.365112304687500000e-01
3.520271706581115723e+01,8.999804496765136719e+00,-1.297657251358032227e+00,4.113238334655761719e+00,-3.967285156250000000e-01,7.553100585937500000e-01,-5.493164062500000000e-01
3.521377730369567871e+01,8.731653213500978339e+00,-1.292868852615356445e+00,4.249708175659180576e+00,-3.967285156250000000e-01,7.553100585937500000e-01,-5.493164062500000000e-01
3.522977471351623535e+01,8.731653213500978339e+00,-1.292868852615356445e+00,4.249708175659180576e+00,9.918212890625000000e-01,-3.814697265625000000e-02,-3.890991210937500000e-01
3.524422478675842285e+01,8.774748802185058594e+00,-1.292868852615356445e+00,4.232948303222656250e+00,9.918212890625000000e-01,-3.814697265625000000e-02,-3.890991210937500000e-01
3.525662422180175781e+01,8.798690795898437500e+00,-1.204283475875854492e+00,4.232948303222656250e+00,1.068115234375000000e-01,2.593994140625000000e-01,-3.890991210937500000e-01
3.527199530601501465e+01,8.805873870849609375e+00,-1.204283475875854492e+00,4.232948303222656250e+00,1.068115234375000000e-01,2.593994140625000000e-01,-3.204345703125000000e-01
3.528318047523498535e+01,8.949525833129882812e+00,-1.204283475875854492e+00,4.156333923339843750e+00,4.196166992187500000e-01,2.593994140625000000e-01,-3.204345703125000000e-01
3.529830527305603027e+01,8.949525833129882812e+00,-1.151610970497131126e+00,4.156333923339843750e+00,4.196166992187500000e-01,3.433227539062500000e-01,-3.738403320312500000e-01
3.531557893753051758e+01,8.875305175781250000e+00,-1.151610970497131126e+00,4.173093318939208984e+00,4.196166992187500000e-01,3.433227539062500000e-01,-3.738403320312500000e-01
3.532673454284667969e+01,8.815450668334960938e+00,-1.161187767982482910e+00,4.173093318939208984e+00,4.196166992187500000e-01,3.433227539062500000e-01,-3.738403320312500000e-01
3.534088873863220215e+01,8.777143478393554688e+00,-1.223437070846557617e+00,4.173093318939208984e+00,4.196166992187500000e-01,1.754760742187500000e-01,-4.577636718750000000e-01
3.535459208488464355e+01,8.777143478393554688e+00,-1.223437070846557617e+00,4.194641113281250000e+00,4.196166992187500000e-01,1.754760742187500000e-01,-4.577636718750000000e-01
