# elapsed time, f1_acc_x, f1_acc_y, f1_acc_z, f1_gyro_x, f1_gyro_y, f1_gyro_z
4.915445256233215332e+01,6.380547523498535156e+00,-8.080430984497070312e+00,-4.070142805576325018e-01,-3.852844238281250000e+00,-1.831054687500000000e-01,8.239746093750000000e-01
4.916990232467651367e+01,6.380547523498535156e+00,-8.034940719604492188e+00,-3.926490843296051025e-01,-3.852844238281250000e+00,-3.814697265625000000e-01,8.239746093750000000e-01
4.918091607093811035e+01,6.378153324127197266e+00,-8.001421928405763495e+00,-3.447650372982025146e-01,-3.852844238281250000e+00,-3.814697265625000000e-01,8.239746093750000000e-01
4.919666075706481934e+01,6.366182327270507812e+00,-8.001421928405763495e+00,-3.926490843296051025e-01,-3.784179687500000000e+00,-3.814697265625000000e-01,9.078979492187500000e-01
4.920849704742431641e+01,6.366182327270507812e+00,-8.022970199584960938e+00,-4.070142805576325018e-01,-4.409790039062500000e+00,-1.983642578125000000e-01,9.078979492187500000e-01
4.922293400764465332e+01,6.332663536071777344e+00,-8.087613105773925781e+00,-4.070142805576325018e-01,-3.707885742187500000e+00,-3.814697265625000000e-01,9.078979492187500000e-01
4.923492479324340820e+01,6.464344501495361328e+00,-8.087613105773925781e+00,-4.070142805576325018e-01,-3.707885742187500000e+00,-3.890991210937500000e-01,9.536743164062500000e-01
4.925046801567077637e+01,6.406883716583252841e+00,-8.075642585754394531e+00,-2.920925915241240900e-01,-3.707885742187500000e+00,-4.348754882812500000e-01,9.002685546875000000e-01
4.926574420928955078e+01,6.406883716583252841e+00,-8.058882713317871094e+00,-4.141968786716461182e-01,-3.715515136718750000e+00,-3.890991210937500000e-01,8.468627929687500000e-01
4.927717256546020508e+01,6.406883716583252841e+00,-8.027758598327638495e+00,-4.141968786716461182e-01,-3.868103027343750000e+00,-4.348754882812500000e-01,8.468627929687500000e-01
4.929237651824951172e+01,6.387730121612548828e+00,-8.027758598327638495e+00,-4.141968786716461182e-01,-4.295349121093750000e+00,-3.890991210937500000e-01,8.468627929687500000e-01
4.930675935745239258e+01,6.382941722869872159e+00,-8.030152320861816406e+00,-3.758896589279174805e-01,-4.295349121093750000e+00,-4.730224609375000000e-01,7.629394531250000000e-01
4.931977200508117676e+01,6.382941722869872159e+00,-8.030152320861816406e+00,-3.758896589279174805e-01,-4.295349121093750000e+00,-4.043579101562500000e-01,7.629394531250000000e-01
4.933390092849731445e+01,6.399701118469237393e+00,-8.020575523376464844e+00,-4.309563040733337402e-01,-4.394531250000000000e+00,-4.043579101562500000e-01,7.019042968750000000e-01
4.934875106811523438e+01,6.399701118469237393e+00,-8.020575523376464844e+00,-4.620809257030487061e-01,-4.394531250000000000e+00,-3.433227539062500000e-01,8.239746093750000000e-01
4.936173725128173828e+01,6.406883716583252841e+00,-8.032546997070312500e+00,-4.620809257030487061e-01,-4.325866699218750000e+00,-2.899169921875000000e-01,8.621215820312500000e-01
4.937401700019836426e+01,6.399701118469237393e+00,-8.032546997070312500e+00,-3.543418347835540771e-01,-4.043579101562500000e+00,-2.899169921875000000e-01,8.621215820312500000e-01
4.939083504676818848e+01,6.406883716583252841e+00,-8.078036308288574219e+00,-3.543418347835540771e-01,-4.325866699218750000e+00,-2.899169921875000000e-01,8.621215820312500000e-01
4.940172719955444336e+01,6.399701118469237393e+00,-8.018181800842285156e+00,-3.543418347835540771e-01,-4.096984863281250000e+00,-3.662109375000000000e-01,9.994506835937500000e-01
4.941551113128662109e+01,6.347028732299804688e+00,-8.018181800842285156e+00,-4.908113479614257812e-01,-4.096984863281250000e+00,-3.662109375000000000e-01,9.994506835937500000e-01
4.943275308609008789e+01,6.347028732299804688e+00,-8.018181800842285156e+00,-3.734954595565795898e-01,-3.974914550781250000e+00,-3.967285156250000000e-01,9.384155273437500000e-01
4.944358110427856445e+01,6.363788127899169922e+00,-7.975085735321044922e+00,-3.902548849582672119e-01,-3.974914550781250000e+00,-3.967285156250000000e-01,9.231567382812500000e-01
4.945775985717773438e+01,6.421248912811278409e+00,-8.037335395812986505e+00,-3.830722570419312079e-01,-3.974914550781250000e+00,-3.128051757812500000e-01,9.078979492187500000e-01
4.947174978256225586e+01,6.414066314697266513e+00,-7.999027729034423828e+00,-3.902548849582672119e-01,-4.165649414062500000e+00,-3.128051757812500000e-01,8.010864257812500000e-01
4.948813390731811523e+01,6.414066314697266513e+00,-8.008605003356933594e+00,-4.453215003013610840e-01,-4.142761230468750000e+00,-1.907348632812500000e-01,8.087158203125000000e-01
4.949855375289916992e+01,6.339846134185791016e+00,-8.008605003356933594e+00,-4.668693244457244873e-01,-4.142761230468750000e+00,-4.196166992187500000e-01,8.087158203125000000e-01
4.951381158828735352e+01,6.339846134185791016e+00,-8.032546997070312500e+00,-4.668693244457244873e-01,-4.127502441406250000e+00,-4.119873046875000000e-01,8.087158203125000000e-01
4.952662491798400879e+01,6.339846134185791016e+00,-8.061277389526367188e+00,-3.758896589279174805e-01,-4.020690917968750000e+00,-4.119873046875000000e-01,7.171630859375000000e-01
4.953854894638061523e+01,6.416460514068604404e+00,-8.061277389526367188e+00,-3.758896589279174805e-01,-4.020690917968750000e+00,-4.119873046875000000e-01,7.171630859375000000e-01
4.955587005615234375e+01,6.337451934814452237e+00,-8.037335395812986505e+00,-3.758896589279174805e-01,-3.967285156250000000e+00,-4.348754882812500000e-01,6.866455078125000000e-01
4.956670880317687988e+01,6.358999729156494141e+00,-8.003816604614257812e+00,-4.309563040733337402e-01,-3.967285156250000000e+00,-6.103515625000000000e-01,1.091003417968750000e+00
4.958049869537353516e+01,6.358999729156494141e+00,-8.003816604614257812e+00,-4.501098990440369207e-01,-3.967285156250000000e+00,-5.645751953125000000e-01,7.553100585937500000e-01
4.959198808670043945e+01,6.423643112182617188e+00,-7.996633529663085938e+00,-4.501098990440369207e-01,-4.318237304687500000e+00,-5.645751953125000000e-01,9.536743164062500000e-01
4.960775732994079590e+01,6.440402507781982422e+00,-7.996633529663085938e+00,-4.501098990440369207e-01,-4.318237304687500000e+00,-2.593994140625000000e-01,9.536743164062500000e-01
4.962290215492248535e+01,6.423643112182617188e+00,-8.008605003356933594e+00,-5.602431893348693848e-01,-4.318237304687500000e+00,-9.918212890625000000e-02,1.281738281250000000e+00
4.963476467132568359e+01,6.387730121612548828e+00,-8.049305915832519531e+00,-5.602431893348693848e-01,-4.135131835937500000e+00,0.000000000000000000e+00,1.281738281250000000e+00
4.964917111396789551e+01,6.354211330413817471e+00,-8.008605003356933594e+00,-5.267243385314941406e-01,-4.333496093750000000e+00,7.629394531250000000e-03,1.121520996093750000e+00
4.966138839721679688e+01,6.313509941101074219e+00,-8.049305915832519531e+00,-3.974374830722808838e-01,-4.135131835937500000e+00,7.629394531250000000e-03,1.121520996093750000e+00
4.967585206031799316e+01,6.222529888153076172e+00,-8.099584579467771661e+00,-3.830722570419312079e-01,-4.043579101562500000e+00,-5.035400390625000000e-01,1.525878906250000000e-01
4.968894910812377930e+01,6.222529888153076172e+00,-8.099584579467771661e+00,-3.830722570419312079e-01,-4.043579101562500000e+00,-5.340576171875000000e-01,1.525878906250000000e-01
4.970339536666870117e+01,6.354211330413817471e+00,-8.082824707031250000e+00,-3.830722570419312079e-01,-4.371643066406250000e+00,-5.340576171875000000e-01,-4.730224609375000000e-01
4.971540069580078125e+01,6.354211330413817471e+00,-8.082824707031250000e+00,-5.339069962501525879e-01,-4.371643066406250000e+00,2.975463867187500000e-01,-4.730224609375000000e-01
4.973041915893554688e+01,6.502651691436767578e+00,-7.972691535949707031e+00,-5.339069962501525879e-01,-2.784729003906250000e+00,2.975463867187500000e-01,1.846313476562500000e+00
4.974194526672363281e+01,6.244078159332275391e+00,-7.951143741607666016e+00,-5.339069962501525879e-01,-2.784729003906250000e+00,1.754760742187500000e-01,1.846313476562500000e+00
4.975734424591064453e+01,6.488286495208740234e+00,-7.951143741607666016e+00,-5.530605912208557129e-01,-4.669189453125000000e+00,-7.247924804687500000e-01,6.637573242187500000e-01
4.977218914031982422e+01,6.421248912811278409e+00,-7.958326339721679688e+00,-3.280056416988372803e-01,-4.669189453125000000e+00,-2.288818359375000000e-01,-8.850097656250000000e-01
4.978478264808654785e+01,6.488286495208740234e+00,-7.958326339721679688e+00,-3.088520169258117676e-01,-3.738403320312500000e+00,-1.129150390625000000e+00,6.637573242187500000e-01
4.979908466339111328e+01,6.421248912811278409e+00,-7.855375766754150391e+00,-3.088520169258117676e-01,-3.486633300781250000e+00,-2.288818359375000000e-01,-4.501342773437500000e-01
4.981135416030883789e+01,6.459556102752685547e+00,-7.855375766754150391e+00,-3.351882398128508966e-01,-3.738403320312500000e+00,-6.179809570312500000e-01,1.449584960937500000e+00
4.982623505592346191e+01,6.306327342987060547e+00,-7.946355342864990234e+00,-3.830722570419312079e-01,-4.379272460937500000e+00,-4.806518554687500000e-01,1.159667968750000000e+00
4.984176707267761230e+01,6.279991149902343750e+00,-7.984662532806396484e+00,-3.830722570419312079e-01,-4.379272460937500000e+00,-6.179809570312500000e-01,1.258850097656250000e+00
4.985411143302917480e+01,6.279991149902343750e+00,-8.006210327148437500e+00,-3.830722570419312079e-01,-3.517150878906250000e+00,-4.806518554687500000e-01,1.159667968750000000e+00
4.986834859848022461e+01,6.347028732299804688e+00,-8.149862289428710938e+00,-3.591302633285522461e-01,-3.517150878906250000e+00,-1.068115234375000000e+00,1.258850097656250000e+00
4.988023662567138672e+01,6.572083473205566406e+00,-8.085219383239746094e+00,-4.070142805576325018e-01,-3.288269042968750000e+00,5.340576171875000000e-02,-3.051757812500000000e-02
4.989593815803527832e+01,6.754043102264403409e+00,-8.085219383239746094e+00,-4.070142805576325018e-01,-3.860473632812500000e+00,-5.645751953125000000e-01,1.296997070312500000e+00
4.990686917304992676e+01,6.572083473205566406e+00,-8.082824707031250000e+00,-4.070142805576325018e-01,-3.860473632812500000e+00,5.340576171875000000e-02,1.800537109375000000e+00
4.992242598533630371e+01,6.076483726501464844e+00,-7.922413349151611328e+00,-1.795651316642761230e-01,-4.486083984375000000e+00,-5.645751953125000000e-01,2.937316894531250000e+00
4.993675374984741211e+01,6.076483726501464844e+00,-7.903259754180907315e+00,-1.795651316642761230e-01,-4.486083984375000000e+00,-4.501342773437500000e-01,1.800537109375000000e+00
4.994929122924804688e+01,6.076483726501464844e+00,-7.922413349151611328e+00,-5.722141861915588379e-01,-3.761291503906250000e+00,-5.493164062500000000e-01,-8.239746093750000000e-01
4.996412944793701172e+01,6.382941722869872159e+00,-7.922413349151611328e+00,-5.722141861915588379e-01,-3.761291503906250000e+00,-5.493164062500000000e-01,-8.239746093750000000e-01
4.997880887985229492e+01,6.600813865661621094e+00,-7.922413349151611328e+00,-3.998316824436187744e-01,-4.600524902343750000e+00,-5.493164062500000000e-01,6.103515625000000000e-02
4.999210214614868164e+01,6.600813865661621094e+00,-7.762001991271972656e+00,-3.998316824436187744e-01,-4.608154296875000000e+00,-8.468627929687500000e-01,1.380920410156250000e+00
5.000353956222534180e+01,6.416460514068604404e+00,-7.762001991271972656e+00,-4.333505034446715753e-01,-4.608154296875000000e+00,1.907348632812500000e-01,1.510620117187500000e+00
5.002072358131408691e+01,6.313509941101074219e+00,-8.118738174438478339e+00,-4.740519225597382147e-01,-2.120971679687500000e+00,-6.332397460937500000e-01,1.510620117187500000e+00
5.003164410591125488e+01,6.074089527130127841e+00,-8.286332130432128906e+00,-7.805097699165344238e-01,-2.120971679687500000e+00,2.105712890625000000e+00,1.396179199218750000e+00
5.004600095748901367e+01,6.313509941101074219e+00,-8.286332130432128906e+00,-7.805097699165344238e-01,-3.433227539062500000e+00,-6.332397460937500000e-01,1.159667968750000000e+00
5.006280994415283203e+01,6.327875137329102451e+00,-8.054094314575195312e+00,-3.926490843296051025e-01,-3.433227539062500000e+00,-5.874633789062500000e-01,-1.518249511718750000e+00
5.007361984252929688e+01,6.710947036743164062e+00,-7.977479934692382812e+00,-3.136404156684875488e-01,-3.433227539062500000e+00,-5.874633789062500000e-01,1.159667968750000000e+00
5.008796405792236328e+01,6.852205276489257812e+00,-7.917624950408934659e+00,-3.136404156684875488e-01,-3.677368164062500000e+00,-3.433227539062500000e-01,1.274108886718750000e+00
5.010181760787963867e+01,6.710947036743164062e+00,-7.905653953552246094e+00,-3.136404156684875488e-01,-4.081726074218750000e+00,-3.433227539062500000e-01,2.822875976562500000e+00
5.011482906341552734e+01,6.026205539703369141e+00,-7.862558364868164062e+00,-1.795651316642761230e-01,-3.982543945312500000e+00,-3.433227539062500000e-01,2.822875976562500000e+00
5.012600708007812500e+01,5.947196960449218750e+00,-7.766790390014647549e+00,-4.668693244457244873e-01,-4.081726074218750000e+00,-6.179809570312500000e-01,1.075744628906250000e+00
5.014381241798400879e+01,5.947196960449218750e+00,-7.862558364868164062e+00,-4.668693244457244873e-01,-4.371643066406250000e+00,-8.392333984375000000e-01,-1.113891601562500000e+00
5.015628004074096680e+01,6.452373504638672763e+00,-8.137891769409179688e+00,-5.003881454467773438e-01,-4.371643066406250000e+00,-8.392333984375000000e-01,-1.289367675781250000e+00
5.016849231719970703e+01,6.572083473205566406e+00,-8.137891769409179688e+00,-5.003881454467773438e-01,-1.937866210937500000e+00,-7.858276367187500000e-01,-1.289367675781250000e+00
5.018601632118225098e+01,6.452373504638672763e+00,-7.759607791900634766e+00,-3.327940404415130615e-01,-1.937866210937500000e+00,-6.484985351562500000e-01,1.167297363281250000e+00
5.019719743728637695e+01,6.335057735443115234e+00,-7.759607791900634766e+00,-3.112462162971497137e-01,-6.446838378906250000e+00,9.918212890625000000e-02,1.167297363281250000e+00
5.021059298515319824e+01,6.177040100097656250e+00,-8.046912193298339844e+00,-3.112462162971497137e-01,-6.446838378906250000e+00,-6.484985351562500000e-01,6.103515625000000000e-01
5.022258710861206055e+01,6.177040100097656250e+00,-8.046912193298339844e+00,-2.585737705230712891e-01,-3.875732421875000000e+00,3.509521484375000000e-01,-1.060485839843750000e+00
5.023703193664550781e+01,6.387730121612548828e+00,-7.920019149780272549e+00,-1.699883192777633389e-01,-3.875732421875000000e+00,3.128051757812500000e-01,-1.060485839843750000e+00
5.025293731689453125e+01,6.387730121612548828e+00,-7.831433773040771484e+00,-1.699883192777633389e-01,-3.425598144531250000e+00,3.128051757812500000e-01,-7.629394531250000000e-03
5.026425600051879883e+01,6.387730121612548828e+00,-7.917624950408934659e+00,-2.896983921527862549e-01,-4.768371582031250000e+00,3.128051757812500000e-01,-7.629394531250000000e-03
5.027902817726135254e+01,6.500257492065429688e+00,-7.917624950408934659e+00,-3.184288144111632746e-01,-4.768371582031250000e+00,-1.434326171875000000e+00,-7.629394531250000000e-03
5.029181241989135742e+01,6.500257492065429688e+00,-8.032546997070312500e+00,-4.333505034446715753e-01,-4.768371582031250000e+00,4.730224609375000000e-01,2.441406250000000000e-01
5.030614924430847168e+01,6.320692539215087891e+00,-8.032546997070312500e+00,-4.333505034446715753e-01,-6.080627441406250000e+00,-1.487731933593750000e+00,2.441406250000000000e-01
5.031862783432006836e+01,6.320692539215087891e+00,-8.197746276855468750e+00,-7.900865674018859863e-01,-3.837585449218750000e+00,-1.655578613281250000e+00,2.441406250000000000e-01
5.033304977416992188e+01,6.744466304779052734e+00,-8.025363922119138849e+00,-5.722141861915588379e-01,-3.837585449218750000e+00,-1.655578613281250000e+00,1.426696777343750000e+00
5.034846854209899902e+01,6.744466304779052734e+00,-8.025363922119138849e+00,-5.722141861915588379e-01,-3.234863281250000000e+00,-1.396179199218750000e+00,1.548767089843750000e+00
5.036031508445739746e+01,6.734889507293701172e+00,-7.728482723236083984e+00,-4.692635238170623779e-01,-3.234863281250000000e+00,1.426696777343750000e+00,1.548767089843750000e+00
5.037567663192749023e+01,5.925649166107177734e+00,-7.728482723236083984e+00,-2.226607501506805142e-01,-4.318237304687500000e+00,1.426696777343750000e+00,1.441955566406250000e+00
5.038735580444335938e+01,5.925649166107177734e+00,-7.900865554809570312e+00,-2.226607501506805142e-01,-5.584716796875000000e+00,-2.746582031250000000e-01,2.365112304687500000e-01
5.040264511108398438e+01,6.370970726013183594e+00,-8.137891769409179688e+00,-6.200982332229614258e-01,-5.584716796875000000e+00,-3.585815429687500000e-01,-1.594543457031250000e+00
5.041396880149841309e+01,6.924031257629394531e+00,-8.137891769409179688e+00,-7.110778689384459339e-01,-3.234863281250000000e+00,-3.051757812500000000e-01,-1.594543457031250000e+00
5.042951560020446777e+01,6.924031257629394531e+00,-7.424419403076172763e+00,-6.200982332229614258e-01,-3.234863281250000000e+00,-3.051757812500000000e-01,3.364562988281250000e+00
5.044435548782348633e+01,5.849034786224365234e+00,-7.424419403076172763e+00,-3.184288144111632746e-01,-4.943847656250000000e+00,1.296997070312500000e-01,3.379821777343750000e+00
5.045599699020385742e+01,5.841852188110352451e+00,-8.322244644165039062e+00,-3.184288144111632746e-01,-5.851745605468750000e+00,1.296997070312500000e-01,3.364562988281250000e+00
5.047163105010986328e+01,5.841852188110352451e+00,-8.322244644165039062e+00,-6.248866319656372070e-01,-5.851745605468750000e+00,-1.327514648437500000e+00,-2.655029296875000000e+00
5.048377466201782227e+01,7.352593421936035156e+00,-7.742848396301268643e+00,-6.248866319656372070e-01,-8.392333984375000000e-01,-1.327514648437500000e+00,-2.655029296875000000e+00
5.049796795845031738e+01,7.352593421936035156e+00,-7.237671852111816406e+00,-2.681505978107452393e-01,-8.392333984375000000e-01,2.357482910156250000e+00,1.808166503906250000e+00
5.051068043708801270e+01,6.483498096466064453e+00,-7.237671852111816406e+00,-1.149216815829277039e-01,-3.829956054687500000e+00,2.357482910156250000e+00,6.240844726562500000e+00
5.052540946006774902e+01,5.971138954162597656e+00,-8.018181800842285156e+00,-1.149216815829277039e-01,-3.829956054687500000e+00,-2.441406250000000000e-01,6.240844726562500000e+00
5.053733277320861816e+01,5.971138954162597656e+00,-8.374917030334472656e+00,-1.254561662673950195e+00,-2.677917480468750000e+00,-2.441406250000000000e-01,2.288818359375000000e-01
5.055272412300109863e+01,6.354211330413817471e+00,-8.190564155578611505e+00,-1.254561662673950195e+00,2.830505371093750000e+00,8.392333984375000000e-01,-1.350402832031250000e+00
5.056716775894165039e+01,6.859387874603272373e+00,-8.190564155578611505e+00,-6.991068720817565918e-01,2.830505371093750000e+00,8.392333984375000000e-01,-1.350402832031250000e+00
5.057941794395446777e+01,6.859387874603272373e+00,-7.460332393646240234e+00,-3.830722570419312079e-01,2.319335937500000000e+00,6.713867187500000000e-01,5.073547363281250000e+00
5.059475708007812500e+01,6.193799495697021484e+00,-7.460332393646240234e+00,-2.753331959247589111e-01,-6.065368652343750000e+00,-6.713867187500000000e-01,6.103515625000000000e+00
5.060885262489318848e+01,6.193799495697021484e+00,-8.176198959350585938e+00,7.829039692878723145e-01,-6.065368652343750000e+00,6.713867187500000000e-01,5.073547363281250000e+00
5.062165713310241699e+01,6.691793441772460938e+00,-8.176198959350585938e+00,-2.753331959247589111e-01,1.220703125000000000e+00,-2.433776855468750000e+00,6.103515625000000000e+00
5.063363337516784668e+01,6.691793441772460938e+00,-8.056488990783691406e+00,5.889735817909240723e-01,1.220703125000000000e+00,2.166748046875000000e+00,3.051757812500000000e-02
5.065082335472106934e+01,6.426037311553955078e+00,-7.704540729522705078e+00,-8.020575642585754395e-01,-6.256103515625000000e+00,4.730224609375000000e-01,8.796691894531250000e+00
5.066337585449218750e+01,6.045359134674072266e+00,-7.704540729522705078e+00,5.027823448181152344e-01,-6.500244140625000000e+00,9.231567382812500000e-01,4.631042480468750000e+00
5.067580223083496094e+01,5.336675643920898438e+00,-7.996633529663085938e+00,-8.020575642585754395e-01,-6.500244140625000000e+00,4.730224609375000000e-01,4.631042480468750000e+00
5.069282841682434082e+01,5.336675643920898438e+00,-8.027758598327638495e+00,-8.499416112899780273e-01,-4.623413085937500000e+00,-1.060485839843750000e+00,-1.144409179687500000e+00
5.070360136032104492e+01,6.734889507293701172e+00,-7.996633529663085938e+00,-8.499416112899780273e-01,-7.324218750000000000e-01,-1.060485839843750000e+00,-2.876281738281250000e+00
5.071800708770751953e+01,7.151480197906494141e+00,-7.738059997558593750e+00,-6.895300745964050293e-01,-7.324218750000000000e-01,8.392333984375000000e-01,-1.144409179687500000e+00
5.073181653022766113e+01,6.734889507293701172e+00,-7.560888767242432529e+00,8.020575642585754395e-01,-2.555847167968750000e+00,2.151489257812500000e+00,3.501892089843750000e+00
5.074478125572204590e+01,6.512228488922119141e+00,-7.738059997558593750e+00,8.020575642585754395e-01,-2.555847167968750000e+00,2.151489257812500000e+00,5.447387695312500000e+00
5.075937294960021973e+01,6.150703907012940341e+00,-8.118738174438478339e+00,-6.440402269363403320e-01,-5.172729492187500000e+00,7.400512695312500000e-01,3.501892089843750000e+00
5.077379870414733887e+01,5.576095581054688388e+00,-8.157045364379882812e+00,-7.350199222564697266e-01,-1.663208007812500000e+00,-5.493164062500000000e-01,2.334594726562500000e+00
5.078688907623291016e+01,5.576095581054688388e+00,-8.157045364379882812e+00,-7.350199222564697266e-01,-5.172729492187500000e+00,-3.280639648437500000e+00,1.792907714843750000e+00
5.079871964454650879e+01,6.260837554931641513e+00,-6.689399242401122159e+00,2.176329374313354492e+00,-9.689331054687500000e+00,-2.922821044921875000e+01,-2.471923828125000000e+00
5.081584596633911133e+01,7.046135425567627841e+00,-6.689399242401122159e+00,2.176329374313354492e+00,-1.992034912109375000e+01,-2.922821044921875000e+01,-2.471923828125000000e+00
5.082664632797241211e+01,6.260837554931641513e+00,-8.075642585754394531e+00,7.254431247711181641e-01,-1.992034912109375000e+01,-1.409912109375000000e+01,5.340576171875000000e-01
5.084092140197753906e+01,6.914454460144042969e+00,-8.389282226562500000e+00,-3.687070608139038086e-01,-1.863861083984375000e+01,-1.105499267578125000e+01,5.203247070312500000e+00
5.085527062416076660e+01,6.215347290039063388e+00,-8.389282226562500000e+00,-1.376665949821472168e+00,-1.397705078125000000e+01,-1.409912109375000000e+01,7.331848144531250000e+00
5.086715126037597656e+01,6.107608318328857422e+00,-7.967903137207031250e+00,-3.998316824436187744e-01,-1.351928710937500000e+01,-1.242065429687500000e+01,9.849548339843750000e+00
5.088210797309875488e+01,6.057330131530762607e+00,-7.967903137207031250e+00,-3.998316824436187744e-01,-1.351928710937500000e+01,-1.242065429687500000e+01,9.849548339843750000e+00
5.089412140846252441e+01,6.057330131530762607e+00,-8.073247909545896661e+00,-3.998316824436187744e-01,-1.234436035156250000e+01,-5.882263183593750000e+00,-4.196166992187500000e-01
5.090952658653259277e+01,6.220135688781737393e+00,-8.418012619018554688e+00,-1.120486378669738770e+00,-1.188659667968750000e+01,-4.280090332031250000e+00,-3.173828125000000000e+00
5.092438077926635742e+01,6.550535678863525391e+00,-8.418012619018554688e+00,-1.120486378669738770e+00,-7.972717285156250000e+00,-9.384155273437500000e-01,-3.829956054687500000e+00
5.093660712242126465e+01,6.550535678863525391e+00,-8.415618896484375000e+00,-5.889735817909240723e-01,-7.972717285156250000e+00,-9.384155273437500000e-01,-3.829956054687500000e+00
5.095100712776184082e+01,6.550535678863525391e+00,-8.391676902770996094e+00,-5.889735817909240723e-01,-1.184082031250000000e+01,-4.249572753906250000e+00,2.441406250000000000e+00
5.096343207359313965e+01,6.078877925872802734e+00,-8.391676902770996094e+00,-5.889735817909240723e-01,-1.329040527343750000e+01,-4.249572753906250000e+00,2.441406250000000000e+00
5.097863459587097168e+01,5.949591159820557529e+00,-8.391676902770996094e+00,-1.206677675247192383e+00,-1.184082031250000000e+01,-9.155273437500000000e-01,1.045227050781250000e+00
5.099021077156066895e+01,5.949591159820557529e+00,-8.240841865539549005e+00,-5.889735817909240723e-01,-9.552001953125000000e+00,5.340576171875000000e-02,-1.945495605468750000e+00
5.100610208511352539e+01,6.409277915954589844e+00,-8.240841865539549005e+00,-6.823474764823913574e-01,-9.552001953125000000e+00,5.340576171875000000e-02,-1.945495605468750000e+00
5.101737999916076660e+01,6.409277915954589844e+00,-7.769184589385986328e+00,-6.823474764823913574e-01,-1.461029052734375000e+01,-2.021789550781250000e+00,1.029968261718750000e+00
5.103191304206848145e+01,6.313509941101074219e+00,-7.769184589385986328e+00,-8.475474119186401367e-01,-1.461029052734375000e+01,-5.706787109375000000e+00,1.029968261718750000e+00
5.104702997207641602e+01,6.296750545501708984e+00,-8.585607528686521661e+00,-1.079784989356994629e+00,-1.429748535156250000e+01,-5.706787109375000000e+00,5.340576171875000000e-02
5.105902671813964844e+01,6.313509941101074219e+00,-8.585607528686521661e+00,-8.475474119186401367e-01,-8.186340332031250000e+00,-2.113342285156250000e+00,-1.007080078125000000e+00
5.107417607307434082e+01,6.411672115325927734e+00,-8.453926086425781250e+00,-1.043871879577636719e+00,-8.186340332031250000e+00,1.022338867187500000e+00,-2.563476562500000000e+00
5.108602929115295410e+01,6.452373504638672763e+00,-7.647079944610596591e+00,-8.547300100326538086e-01,-9.117126464843750000e+00,1.022338867187500000e+00,-2.563476562500000000e+00
5.110138440132141113e+01,6.452373504638672763e+00,-7.647079944610596591e+00,-8.547300100326538086e-01,-1.127624511718750000e+01,-2.296447753906250000e+00,-1.296997070312500000e-01
5.111618471145629883e+01,6.363788127899169922e+00,-7.953537940979003906e+00,-8.283937573432922363e-01,-1.189422607421875000e+01,-8.033752441406250000e+00,4.745483398437500000e+00
5.112817764282226562e+01,6.342240333557128906e+00,-8.367734909057617188e+00,-8.283937573432922363e-01,-1.189422607421875000e+01,-3.417968750000000000e+00,4.066467285156250000e+00
5.114302992820739746e+01,6.332663536071777344e+00,-8.367734909057617188e+00,-1.077390789985656738e+00,-1.180267333984375000e+01,-3.417968750000000000e+00,4.066467285156250000e+00
5.115539813041687012e+01,6.332663536071777344e+00,-8.192957878112792969e+00,-1.077390789985656738e+00,-9.002685546875000000e+00,3.631591796875000000e+00,-4.310607910156250000e+00
5.117063832283020020e+01,6.615179061889647549e+00,-8.080430984497070312e+00,-1.077390789985656738e+00,-9.002685546875000000e+00,3.631591796875000000e+00,-4.310607910156250000e+00
5.118258905410766602e+01,6.615179061889647549e+00,-8.044517517089843750e+00,-7.685387134552001953e-01,-9.078979492187500000e+00,-4.562377929687500000e+00,4.959106445312500000e-01
5.119689202308654785e+01,6.378153324127197266e+00,-8.080430984497070312e+00,-7.685387134552001953e-01,-9.384155273437500000e+00,-4.562377929687500000e+00,4.959106445312500000e-01
5.121280312538146973e+01,6.153098106384277344e+00,-8.353369712829589844e+00,-7.685387134552001953e-01,-1.190185546875000000e+01,-7.049560546875000000e+00,2.227783203125000000e+00
5.122505879402160645e+01,6.047753334045410156e+00,-8.353369712829589844e+00,-1.017535686492920144e+00,-1.190185546875000000e+01,-4.638671875000000000e+00,1.838684082031250000e+00
5.124414968490600586e+01,5.966350555419922763e+00,-7.872135162353516513e+00,-1.017535686492920144e+00,-7.873535156250000000e+00,-4.638671875000000000e+00,1.838684082031250000e+00
5.125404834747314453e+01,5.966350555419922763e+00,-7.843404769897460938e+00,-7.852981686592102051e-01,-7.873535156250000000e+00,-4.638671875000000000e+00,1.205444335937500000e+00
5.126653957366943359e+01,6.301538944244384766e+00,-7.872135162353516513e+00,-7.852981686592102051e-01,-1.186370849609375000e+01,-2.243041992187500000e+00,8.316040039062500000e-01
5.128382396697998047e+01,6.481103897094727451e+00,-8.216899871826173651e+00,-9.026139974594116211e-01,-1.186370849609375000e+01,-2.243041992187500000e+00,-1.609802246093750000e+00
5.129484128952026367e+01,6.481103897094727451e+00,-8.216899871826173651e+00,-9.026139974594116211e-01,-1.032257080078125000e+01,-1.510620117187500000e+00,-1.609802246093750000e+00
5.130794334411621094e+01,6.430825710296630859e+00,-7.941566944122313565e+00,-7.541735172271728516e-01,-1.032257080078125000e+01,1.586914062500000000e+00,-2.235412597656250000e+00
5.132270836830139160e+01,6.430825710296630859e+00,-7.941566944122313565e+00,-7.541735172271728516e-01,-1.152801513671875000e+01,8.087158203125000000e-01,-2.235412597656250000e+00
5.133597874641418457e+01,6.646303653717041016e+00,-8.128314971923826349e+00,-7.852981686592102051e-01,-1.345062255859375000e+01,8.087158203125000000e-01,-2.235412597656250000e+00
5.135061335563659668e+01,6.646303653717041016e+00,-8.128314971923826349e+00,-1.264138460159301758e+00,-1.345062255859375000e+01,-1.846313476562500000e+00,1.777648925781250000e+00
5.136476159095764160e+01,6.521805286407471591e+00,-8.276755332946777344e+00,-1.264138460159301758e+00,-1.029205322265625000e+01,-2.540588378906250000e+00,2.433776855468750000e+00
5.137681317329406738e+01,6.521805286407471591e+00,-8.037335395812986505e+00,-1.395819544792175293e+00,-4.074096679687500000e+00,-4.203796386718750000e+00,6.355285644531250000e+00
5.138923215866088867e+01,6.521805286407471591e+00,-8.037335395812986505e+00,-1.395819544792175293e+00,-4.074096679687500000e+00,-4.806518554687500000e+00,6.355285644531250000e+00
5.140687465667724609e+01,6.358999729156494141e+00,-8.032546997070312500e+00,-9.504980444908142090e-01,-6.042480468750000000e+00,-4.806518554687500000e+00,7.186889648437500000e+00
5.141911005973815918e+01,6.358999729156494141e+00,-7.881711959838867188e+00,-9.504980444908142090e-01,-6.477355957031250000e+00,-6.607055664062500000e+00,5.325317382812500000e+00
5.143175959587097168e+01,6.241683959960937500e+00,-7.881711959838867188e+00,-1.122880578041076882e+00,-7.629394531250000000e+00,-6.607055664062500000e+00,5.325317382812500000e+00
5.144609546661376953e+01,6.126761913299560547e+00,-7.975085735321044922e+00,-1.173158764839172363e+00,-7.682800292968750000e+00,-4.997253417968750000e+00,5.325317382812500000e+00
5.145885515213012695e+01,6.131550312042236328e+00,-8.252813339233396661e+00,-1.429338335990905762e+00,-7.682800292968750000e+00,-2.586364746093750000e+00,4.493713378906250000e+00
5.147300052642822266e+01,6.126761913299560547e+00,-8.252813339233396661e+00,-1.527500629425048828e+00,-7.392883300781250000e+00,-2.586364746093750000e+00,4.486083984375000000e+00
5.148522329330444336e+01,6.131550312042236328e+00,-8.264783859252929688e+00,-1.429338335990905762e+00,-7.019042968750000000e+00,-4.959106445312500000e-01,2.616882324218750000e+00
5.150087308883666992e+01,6.390124320983887607e+00,-8.238448143005371094e+00,-1.347935557365417703e+00,-6.729125976562500000e+00,-4.959106445312500000e-01,2.616882324218750000e+00
5.151297044754028320e+01,6.447585105895996094e+00,-8.238448143005371094e+00,-1.242590665817260742e+00,-6.156921386718750000e+00,-9.002685546875000000e-01,3.532409667968750000e+00
5.152720975875854492e+01,6.447585105895996094e+00,-8.149862289428710938e+00,-9.959878921508787952e-01,-5.622863769531250000e+00,-2.792358398437500000e+00,3.532409667968750000e+00
5.154260730743408203e+01,6.232106685638427734e+00,-8.063671112060548651e+00,-9.959878921508787952e-01,-5.622863769531250000e+00,-2.792358398437500000e+00,3.532409667968750000e+00
5.155479788780212402e+01,6.198587894439697266e+00,-8.022970199584960938e+00,-1.338358759880065918e+00,-6.500244140625000000e+00,-2.792358398437500000e+00,3.555297851562500000e+00
5.156926727294921875e+01,6.181828498840332031e+00,-8.015787124633789062e+00,-1.343147158622741699e+00,-6.660461425781250000e+00,-2.662658691406250000e+00,3.562927246093750000e+00
5.158121466636657715e+01,5.997475147247314453e+00,-8.015787124633789062e+00,-1.517923831939697266e+00,-7.064819335937500000e+00,-2.662658691406250000e+00,4.463195800781250000e+00
5.159703779220581055e+01,5.997475147247314453e+00,-8.243236541748048651e+00,-1.517923831939697266e+00,-7.064819335937500000e+00,-2.571105957031250000e+00,4.951477050781250000e+00
5.160789799690246582e+01,6.098031520843505859e+00,-8.429984092712402344e+00,-1.398213744163513184e+00,-7.064819335937500000e+00,-2.311706542968750000e+00,4.951477050781250000e+00
5.162320208549499512e+01,6.167463302612304688e+00,-8.429984092712402344e+00,-1.376665949821472168e+00,-6.759643554687500000e+00,-1.045227050781250000e+00,8.392333984375000000e-01
5.163896393775939941e+01,6.473921298980712891e+00,-8.137891769409179688e+00,-1.335964560508728027e+00,-6.530761718750000000e+00,-9.155273437500000000e-02,8.163452148437500000e-01
5.165083050727844238e+01,6.509834289550781250e+00,-8.116343498229980469e+00,-1.103726983070373535e+00,-6.530761718750000000e+00,-9.155273437500000000e-02,8.163452148437500000e-01
5.166506671905517578e+01,6.509834289550781250e+00,-8.137891769409179688e+00,-1.103726983070373535e+00,-7.064819335937500000e+00,-4.745483398437500000e+00,2.334594726562500000e+00
5.167741847038269043e+01,6.234500885009766513e+00,-7.970297336578369141e+00,-1.280897855758666992e+00,-7.530212402343750000e+00,-4.745483398437500000e+00,3.707885742187500000e+00
5.169189906120300293e+01,5.762843608856201172e+00,-8.279149055480957031e+00,-1.355118155479431152e+00,-8.857727050781250000e+00,-3.540039062500000000e+00,3.707885742187500000e+00
5.170794892311096191e+01,5.762843608856201172e+00,-8.293514251708982599e+00,-1.628057122230529785e+00,-9.483337402343750000e+00,-3.540039062500000000e+00,2.441406250000000000e+00
5.171896910667419434e+01,5.904101371765137607e+00,-8.434772491455076349e+00,-1.824381709098815918e+00,-8.857727050781250000e+00,-2.731323242187500000e+00,1.258850097656250000e+00
5.173397326469421387e+01,6.138732910156250000e+00,-8.434772491455076349e+00,-1.824381709098815918e+00,-5.966186523437500000e+00,2.517700195312500000e-01,3.128051757812500000e-01
5.174636149406433105e+01,6.387730121612548828e+00,-8.180987358093263495e+00,-1.750161409378051758e+00,-5.676269531250000000e+00,2.517700195312500000e-01,3.128051757812500000e-01
5.176142311096191406e+01,6.387730121612548828e+00,-8.058882713317871094e+00,-1.218648672103881836e+00,-5.966186523437500000e+00,-2.723693847656250000e+00,5.851745605468750000e+00
5.177328276634216309e+01,6.035782337188721591e+00,-8.058882713317871094e+00,-9.672574996948242188e-01,-7.019042968750000000e+00,-2.853393554687500000e+00,5.851745605468750000e+00
5.178891468048095703e+01,6.035782337188721591e+00,-8.106766700744628906e+00,-9.672574996948242188e-01,-8.506774902343750000e+00,-2.853393554687500000e+00,3.623962402343750000e+00
5.180099725723266602e+01,6.258443355560302734e+00,-8.202534675598144531e+00,-1.285686254501342773e+00,-1.213073730468750000e+01,-2.517700195312500000e+00,5.722045898437500000e-01
5.181587600708007812e+01,6.380547523498535156e+00,-8.283937454223632812e+00,-1.654393315315246582e+00,-1.213073730468750000e+01,-1.625061035156250000e+00,2.136230468750000000e-01
5.182979965209960938e+01,6.387730121612548828e+00,-8.202534675598144531e+00,-1.697489023208618164e+00,-1.010131835937500000e+01,-9.841918945312500000e-01,-1.983642578125000000e-01
5.184195542335510254e+01,6.397306919097900391e+00,-8.283937454223632812e+00,-1.714248418807983398e+00,-8.773803710937500000e+00,-9.841918945312500000e-01,2.136230468750000000e-01
5.185689306259155273e+01,6.387730121612548828e+00,-8.061277389526367188e+00,-1.714248418807983398e+00,-8.201599121093750000e+00,-5.218505859375000000e+00,-6.408691406250000000e-01
5.187172293663024902e+01,5.837063789367675781e+00,-8.202534675598144531e+00,-1.656787514686584473e+00,-7.926940917968750000e+00,-5.218505859375000000e+00,3.662109375000000000e+00
5.188499641418457031e+01,5.837063789367675781e+00,-8.202534675598144531e+00,-1.022324085235595703e+00,-7.926940917968750000e+00,-2.616882324218750000e+00,2.479553222656250000e+00
5.189668536186218262e+01,6.306327342987060547e+00,-8.202534675598144531e+00,-1.158793568611145020e+00,-7.926940917968750000e+00,-5.645751953125000000e-01,2.479553222656250000e+00
5.191367959976196289e+01,6.306327342987060547e+00,-8.224082946777343750e+00,-1.158793568611145020e+00,-9.193420410156250000e+00,-2.746582031250000000e-01,1.167297363281250000e+00
5.192678737640380859e+01,6.394912719726562500e+00,-8.224082946777343750e+00,-1.252167463302612305e+00,-1.192474365234375000e+01,-2.746582031250000000e-01,1.167297363281250000e+00
5.193882703781127930e+01,6.332663536071777344e+00,-8.243236541748048651e+00,-1.601720929145813210e+00,-1.218414306640625000e+01,-2.746582031250000000e-01,2.189636230468750000e+00
5.195572376251220703e+01,6.332663536071777344e+00,-8.243236541748048651e+00,-1.628057122230529785e+00,-1.243591308593750000e+01,-1.907348632812500000e+00,2.189636230468750000e+00
5.196656417846679688e+01,6.076483726501464844e+00,-8.214506149291992188e+00,-2.221819162368774414e+00,-1.243591308593750000e+01,-1.953125000000000000e+00,2.189636230468750000e+00
5.198075222969055176e+01,5.863399982452392578e+00,-8.180987358093263495e+00,-2.221819162368774414e+00,-6.126403808593750000e+00,-1.953125000000000000e+00,1.716613769531250000e+00
5.199474453926086426e+01,5.595249176025391513e+00,-8.125920295715332031e+00,-1.924938082695007546e+00,-6.126403808593750000e+00,-1.953125000000000000e+00,2.136230468750000000e+00
5.200713467597961426e+01,5.595249176025391513e+00,-7.963114738464355469e+00,-1.582567334175110085e+00,-8.140563964843750000e+00,-2.441406250000000000e+00,1.625061035156250000e+00
5.202307200431823730e+01,6.052541732788085938e+00,-7.963114738464355469e+00,-1.544260025024414062e+00,-8.850097656250000000e+00,-2.441406250000000000e+00,1.678466796875000000e-01
5.203684473037719727e+01,6.404489517211914062e+00,-7.879317760467528409e+00,-1.544260025024414062e+00,-1.107788085937500000e+01,-2.441406250000000000e+00,1.678466796875000000e-01
5.204896664619445801e+01,6.404489517211914062e+00,-7.955932140350342685e+00,-1.683123707771301270e+00,-1.304626464843750000e+01,-3.379821777343750000e+00,3.631591796875000000e+00
5.206137394905090332e+01,6.313509941101074219e+00,-7.955932140350342685e+00,-1.776497602462768555e+00,-1.304626464843750000e+01,-3.379821777343750000e+00,5.798339843750000000e+00
5.207701945304870605e+01,5.731718540191650391e+00,-8.540117263793945312e+00,-1.829170107841491921e+00,-1.304626464843750000e+01,-3.372192382812500000e+00,5.798339843750000000e+00
5.209199500083923340e+01,5.731718540191650391e+00,-8.626308441162111151e+00,-1.872265696525573508e+00,-1.364135742187500000e+01,-2.296447753906250000e+00,4.646301269531250000e+00
5.210307145118713379e+01,5.844246387481689453e+00,-8.540117263793945312e+00,-2.070984363555908203e+00,-1.124572753906250000e+01,-1.396179199218750000e+00,-2.738952636718750000e+00
5.211826658248901367e+01,6.256049156188964844e+00,-8.022970199584960938e+00,-2.070984363555908203e+00,-9.094238281250000000e+00,4.585266113281250000e+00,-2.738952636718750000e+00
5.213055443763732910e+01,6.543353080749512607e+00,-7.687781333923339844e+00,-1.640028119087219238e+00,-9.094238281250000000e+00,4.585266113281250000e+00,-1.968383789062500000e+00
5.214531779289245605e+01,6.543353080749512607e+00,-8.022970199584960938e+00,-1.534683227539062500e+00,-8.384704589843750000e+00,-7.759094238281250000e+00,9.521484375000000000e+00
5.215726280212402344e+01,6.030993938446044922e+00,-8.377311706542968750e+00,-1.534683227539062500e+00,-9.613037109375000000e+00,-8.605957031250000000e+00,9.521484375000000000e+00
5.217187333106994629e+01,5.683834552764892578e+00,-8.377311706542968750e+00,-1.668758511543274148e+00,-1.831817626953125000e+01,-7.759094238281250000e+00,5.546569824218750000e+00
5.218773984909057617e+01,5.683834552764892578e+00,-8.080430984497070312e+00,-2.516305923461914062e+00,-1.831817626953125000e+01,-2.044677734375000000e+00,8.773803710937500000e-01
5.219895505905151367e+01,6.016628742218017578e+00,-8.073247909545896661e+00,-2.516305923461914062e+00,-1.403808593750000000e+01,-2.044677734375000000e+00,8.773803710937500000e-01
5.221466779708862305e+01,6.016628742218017578e+00,-8.080430984497070312e+00,-2.090137958526611772e+00,-1.174163818359375000e+01,-2.220153808593750000e+00,4.867553710937500000e+00
5.222618961334228516e+01,6.083666324615479404e+00,-8.446743011474611151e+00,-1.326387763023376465e+00,-1.174163818359375000e+01,-7.041931152343750000e+00,1.862335205078125000e+01
5.224180889129638672e+01,5.992686748504638672e+00,-8.446743011474611151e+00,-1.326387763023376465e+00,-2.040100097656250000e+01,-7.041931152343750000e+00,1.862335205078125000e+01
5.225299501419067383e+01,5.971138954162597656e+00,-8.446743011474611151e+00,-2.461239337921142578e+00,-2.040100097656250000e+01,8.697509765625000000e-01,3.334045410156250000e+00
5.226879644393920898e+01,5.971138954162597656e+00,-8.233659744262695312e+00,-2.461239337921142578e+00,-1.999664306640625000e+01,8.697509765625000000e-01,3.334045410156250000e+00
5.228314113616943359e+01,5.825092792510986328e+00,-8.233659744262695312e+00,-1.810016512870788796e+00,-1.476287841796875000e+01,-8.544921875000000000e+00,1.467895507812500000e+01
5.229596209526062012e+01,5.698199748992919922e+00,-8.233659744262695312e+00,-1.810016512870788796e+00,-1.476287841796875000e+01,-1.114654541015625000e+01,1.467895507812500000e+01
5.231061792373657227e+01,5.501875400543212891e+00,-8.257601737976074219e+00,-2.410961151123046875e+00,-2.255249023437500000e+01,-8.544921875000000000e+00,1.321411132812500000e+01
5.232193374633789062e+01,5.501875400543212891e+00,-8.360551834106445312e+00,-2.410961151123046875e+00,-2.832794189453125000e+01,-6.515502929687500000e+00,4.341125488281250000e+00
5.233773899078369141e+01,5.846640586853027344e+00,-8.530540466308593750e+00,-2.410961151123046875e+00,-2.832794189453125000e+01,-2.876281738281250000e+00,1.037597656250000000e+00
5.235265350341796875e+01,5.846640586853027344e+00,-8.360551834106445312e+00,-2.566584110260009766e+00,-2.344512939453125000e+01,-2.395629882812500000e+00,1.174926757812500000e+00
5.236460852622985840e+01,5.846640586853027344e+00,-8.164227485656736505e+00,-2.566584110260009766e+00,-2.344512939453125000e+01,-2.395629882812500000e+00,1.174926757812500000e+00
5.237885403633117676e+01,6.023811340332031250e+00,-8.164227485656736505e+00,-2.422932147979736328e+00,-2.346801757812500000e+01,-2.395629882812500000e+00,8.728027343750000000e+00
5.239170789718627930e+01,6.023811340332031250e+00,-8.164227485656736505e+00,-2.164358377456665039e+00,-2.439880371093750000e+01,-2.807617187500000000e+00,1.099395751953125000e+01
5.240606594085693359e+01,5.398924827575683594e+00,-8.157045364379882812e+00,-2.422932147979736328e+00,-2.655029296875000000e+01,2.059936523437500000e-01,1.099395751953125000e+01
5.242136740684509277e+01,5.382165431976318359e+00,-8.157045364379882812e+00,-3.064578056335448775e+00,-2.655029296875000000e+01,4.035949707031250000e+00,5.027770996093750000e+00
5.243280220031738281e+01,5.398924827575683594e+00,-8.602366447448730469e+00,-3.081337451934814453e+00,-2.195739746093750000e+01,7.118225097656250000e+00,-3.631591796875000000e+00
5.244862723350524902e+01,5.791574001312255859e+00,-8.602366447448730469e+00,-3.081337451934814453e+00,-1.539611816406250000e+01,7.118225097656250000e+00,-3.631591796875000000e+00
5.246280694007873535e+01,6.011840343475342685e+00,-8.233659744262695312e+00,-2.485181331634521040e+00,-1.539611816406250000e+01,2.441406250000000000e-01,2.441406250000000000e-01
5.247502136230468750e+01,6.093243122100830078e+00,-8.233659744262695312e+00,-2.485181331634521040e+00,-2.005767822265625000e+01,2.441406250000000000e-01,2.441406250000000000e-01
5.248701596260070801e+01,6.136338710784912109e+00,-8.561665534973144531e+00,-2.782062292098999023e+00,-2.005767822265625000e+01,1.701354980468750000e+00,-1.716613769531250000e+00
5.250482177734375000e+01,6.093243122100830078e+00,-8.561665534973144531e+00,-2.942473888397216797e+00,-1.687622070312500000e+01,3.479003906250000000e+00,-1.716613769531250000e+00
5.251695990562438965e+01,5.614402770996093750e+00,-8.334216117858888495e+00,-3.354276418685913086e+00,-1.087951660156250000e+01,3.479003906250000000e+00,-9.994506835937500000e-01
5.252930665016174316e+01,5.595249176025391513e+00,-8.334216117858888495e+00,-3.354276418685913086e+00,-1.071929931640625000e+01,1.495361328125000000e+00,5.493164062500000000e-01
5.254677605628967285e+01,5.595249176025391513e+00,-8.549694061279298651e+00,-2.346317529678344727e+00,-1.071929931640625000e+01,1.495361328125000000e+00,5.493164062500000000e-01
5.255782079696655273e+01,5.710170745849608487e+00,-8.549694061279298651e+00,-2.346317529678344727e+00,-1.097869873046875000e+01,2.273559570312500000e+00,-6.362915039062500000e+00
5.257098102569580078e+01,5.832275390625000000e+00,-8.142680168151855469e+00,-2.671929121017456055e+00,-1.097869873046875000e+01,3.402709960937500000e+00,-6.362915039062500000e+00
5.258874869346618652e+01,6.042964935302733487e+00,-8.030152320861816406e+00,-3.110067844390868697e+00,-1.033020019531250000e+01,3.402709960937500000e+00,-3.524780273437500000e+00
5.259983754158020020e+01,6.042964935302733487e+00,-8.030152320861816406e+00,-3.110067844390868697e+00,-8.239746093750000000e-01,3.402709960937500000e+00,1.129150390625000000e+00
5.261346101760864258e+01,5.293580055236816406e+00,-8.611943244934082031e+00,-3.110067844390868697e+00,7.858276367187500000e-01,1.253509521484375000e+01,1.129150390625000000e+00
5.262770795822143555e+01,4.984727859497070312e+00,-8.822632789611816406e+00,-3.785232782363892046e+00,6.195068359375000000e+00,1.922607421875000000e+01,-1.042175292968750000e+01
5.264085555076599121e+01,4.984727859497070312e+00,-8.822632789611816406e+00,-3.914519786834716797e+00,1.711273193359375000e+01,3.217315673828125000e+01,-3.078460693359375000e+01
5.265275311470031738e+01,5.125985622406005859e+00,-8.571242332458496094e+00,-3.914519786834716797e+00,5.053710937500000000e+01,4.629516601562500000e+01,-4.199218750000000000e+01
5.266977858543395996e+01,9.176975250244140625e+00,-8.571242332458496094e+00,-4.405331134796143466e+00,1.250076293945312358e+02,4.629516601562500000e+01,-4.199218750000000000e+01
5.268190908432006836e+01,9.176975250244140625e+00,-9.600749015808103692e+00,-1.568202137947082297e+00,2.499923706054687500e+02,4.055023193359375000e+01,3.259277343750000000e+01
5.269409513473510742e+01,1.083855056762695312e+01,-9.600749015808103692e+00,3.782838582992553711e+00,2.499923706054687500e+02,3.992462158203125000e+01,3.259277343750000000e+01
5.270929908752441406e+01,-2.008735179901123047e+00,-1.498052024841308594e+01,1.394383049011230469e+01,1.811828613281250000e+02,3.992462158203125000e+01,1.219940185546875000e+01
5.272133302688598633e+01,-4.357447028160095215e-01,-1.316810894012451172e+01,1.394383049011230469e+01,1.290893554687500000e+01,1.948242187500000000e+02,-1.086883544921875000e+02
5.273691582679748535e+01,-4.357447028160095215e-01,-1.498052024841308594e+01,5.865793824195861816e-01,-2.743530273437500000e+01,1.948242187500000000e+02,1.219940185546875000e+01
5.274828505516052246e+01,7.953537940979003906e+00,-1.316810894012451172e+01,-6.641515254974365234e+00,-2.743530273437500000e+01,-3.487396240234375000e+01,1.522064208984375000e+01
5.276360988616943359e+01,1.194946002960205078e+01,-1.210747814178466797e+01,5.865793824195861816e-01,3.308105468750000000e+01,-3.487396240234375000e+01,3.804779052734375000e+01
5.277975106239318848e+01,7.953537940979003906e+00,-3.349488019943237305e+00,6.677428245544433594e+00,3.308105468750000000e+01,5.981445312500000000e+00,1.522064208984375000e+01
5.278988623619079590e+01,8.904035568237304688e+00,-3.349488019943237305e+00,6.677428245544433594e+00,-3.563690185546875000e+01,6.355285644531250000e+00,1.556396484375000000e+00
5.280549240112304688e+01,8.092401623725891113e-01,-1.184411525726318537e+01,-6.344634532928467685e+00,-3.563690185546875000e+01,5.981445312500000000e+00,-1.953125000000000000e+00
5.281743454933166504e+01,7.556100368499755859e+00,-1.184411525726318537e+01,-6.344634532928467685e+00,1.153564453125000000e+01,-9.613037109375000000e-01,-3.288269042968750000e+00
5.283186769485473633e+01,6.718129634857177734e+00,-6.098031520843505859e+00,1.829170107841491921e+00,1.153564453125000000e+01,-9.613037109375000000e-01,-7.652282714843750000e+00
5.284420204162597656e+01,7.556100368499755859e+00,-6.098031520843505859e+00,1.829170107841491921e+00,-1.715087890625000000e+01,6.332397460937500000e-01,-7.652282714843750000e+00
5.285959267616271973e+01,6.718129634857177734e+00,-9.105149269104003906e+00,-2.267308950424194336e+00,-1.715087890625000000e+01,2.418518066406250000e+00,4.005432128906250000e+00
5.287193465232849121e+01,5.786785602569580078e+00,-9.105149269104003906e+00,-2.267308950424194336e+00,-2.944946289062500000e+00,3.005981445312500000e+00,4.005432128906250000e+00
5.288649892807006836e+01,4.417302131652832031e+00,-7.829039573669433594e+00,-6.224924325942992470e-02,-2.944946289062500000e+00,3.005981445312500000e+00,5.416870117187500000e-01
5.290080070495605469e+01,4.417302131652832031e+00,-7.829039573669433594e+00,-6.224924325942992470e-02,-2.944946289062500000e+00,-1.289367675781250000e+00,-4.089355468750000000e+00
5.291391301155090332e+01,7.120355606079102451e+00,-7.829039573669433594e+00,-6.224924325942992470e-02,-2.922058105468750000e+00,-1.289367675781250000e+00,-4.089355468750000000e+00
5.292883658409118652e+01,7.120355606079102451e+00,-7.407660007476807529e+00,-3.375824391841888428e-01,-2.922058105468750000e+00,-1.289367675781250000e+00,-4.066467285156250000e+00
5.293999695777893066e+01,6.598419666290282315e+00,-7.407660007476807529e+00,-3.375824391841888428e-01,-6.195068359375000000e+00,-2.662658691406250000e+00,3.646850585937500000e+00
5.295533585548400879e+01,6.200982093811035156e+00,-8.583212852478027344e+00,-1.125274777412414551e+00,-6.195068359375000000e+00,-2.662658691406250000e+00,3.662109375000000000e+00
5.296731662750244141e+01,6.200982093811035156e+00,-8.583212852478027344e+00,-1.125274777412414551e+00,-5.584716796875000000e+00,-2.662658691406250000e+00,3.646850585937500000e+00
5.298265767097473145e+01,6.291962146759032315e+00,-8.590395927429200995e+00,-1.225831270217895508e+00,-5.584716796875000000e+00,-2.494812011718750000e+00,1.144409179687500000e-01
5.299732661247253418e+01,7.019799232482910156e+00,-8.439560890197753906e+00,-7.038952708244323730e-01,-5.584716796875000000e+00,2.471923828125000000e+00,1.144409179687500000e-01
5.300956416130065918e+01,7.019799232482910156e+00,-8.439560890197753906e+00,-7.038952708244323730e-01,-3.265380859375000000e+00,2.502441406250000000e+00,6.179809570312500000e-01
5.302475976943969727e+01,6.028599739074707031e+00,-8.003816604614257812e+00,1.316810846328735629e-01,-3.265380859375000000e+00,2.502441406250000000e+00,6.179809570312500000e-01
5.303694128990173340e+01,6.028599739074707031e+00,-8.003816604614257812e+00,1.316810846328735629e-01,-3.868103027343750000e+00,3.051757812500000000e-01,6.179809570312500000e-01
5.305155897140502930e+01,6.445190906524657315e+00,-8.003816604614257812e+00,-2.466027736663818637e-01,-3.868103027343750000e+00,-1.045227050781250000e+00,2.334594726562500000e+00
5.306651329994201660e+01,6.445190906524657315e+00,-7.852981567382812500e+00,-2.466027736663818637e-01,-3.868103027343750000e+00,-1.045227050781250000e+00,2.334594726562500000e+00
5.307823467254638672e+01,6.124367713928222656e+00,-7.852981567382812500e+00,-2.466027736663818637e-01,-5.508422851562500000e+00,-1.045227050781250000e+00,2.471923828125000000e+00
5.309572720527648926e+01,6.124367713928222656e+00,-8.700529098510742188e+00,-8.906430006027221680e-01,-5.508422851562500000e+00,3.433227539062500000e-01,1.663208007812500000e+00
5.310685515403747559e+01,6.392518520355224609e+00,-8.700529098510742188e+00,-8.906430006027221680e-01,-2.044677734375000000e+00,3.433227539062500000e-01,1.663208007812500000e+00
5.312070536613464355e+01,6.392518520355224609e+00,-7.977479934692382812e+00,8.858545869588851929e-02,-2.044677734375000000e+00,3.433227539062500000e-01,-4.806518554687500000e-01
5.313777136802673340e+01,6.392518520355224609e+00,-7.977479934692382812e+00,8.858545869588851929e-02,-3.646850585937500000e+00,-1.441955566406250000e+00,-4.806518554687500000e-01
5.314901518821716309e+01,6.220135688781737393e+00,-7.977479934692382812e+00,-3.208230137825012207e-01,-3.646850585937500000e+00,-1.441955566406250000e+00,-4.806518554687500000e-01
5.316269111633300781e+01,6.220135688781737393e+00,-7.836222171783447266e+00,-3.208230137825012207e-01,-3.402709960937500000e+00,-5.645751953125000000e-01,2.525329589843750000e+00
5.317668986320495605e+01,6.220135688781737393e+00,-7.836222171783447266e+00,-3.208230137825012207e-01,-3.402709960937500000e+00,-5.645751953125000000e-01,-7.171630859375000000e-01
5.318954110145568848e+01,6.258443355560302734e+00,-8.327033042907714844e+00,-6.272808313369750977e-01,-3.402709960937500000e+00,-1.121520996093750000e+00,1.808166503906250000e+00
5.320386910438537598e+01,6.667851448059082031e+00,-8.327033042907714844e+00,-6.272808313369750977e-01,-4.287719726562500000e+00,-1.121520996093750000e+00,1.808166503906250000e+00
5.321872401237487793e+01,6.258443355560302734e+00,-8.046912193298339844e+00,-3.160346150398254395e-01,-4.287719726562500000e+00,-3.051757812500000000e-01,1.808166503906250000e+00
5.323191952705383301e+01,6.514622688293457031e+00,-8.046912193298339844e+00,-3.160346150398254395e-01,-4.287719726562500000e+00,-3.051757812500000000e-01,1.129150390625000000e+00
5.324320340156555176e+01,6.399701118469237393e+00,-8.046912193298339844e+00,-5.626373887062072754e-01,-4.013061523437500000e+00,1.701354980468750000e+00,-1.472473144531250000e+00
5.326062011718750000e+01,6.399701118469237393e+00,-8.020575523376464844e+00,-5.626373887062072754e-01,-4.013061523437500000e+00,-1.983642578125000000e-01,8.544921875000000000e-01
5.327120208740234375e+01,6.399701118469237393e+00,-8.020575523376464844e+00,-5.626373887062072754e-01,-4.806518554687500000e+00,-1.983642578125000000e-01,8.544921875000000000e-01
5.328571057319641113e+01,6.306327342987060547e+00,-8.262390136718750000e+00,-8.259995579719543457e-01,-4.806518554687500000e+00,-3.509521484375000000e-01,8.544921875000000000e-01
5.330278396606445312e+01,6.418854713439941406e+00,-8.262390136718750000e+00,-8.259995579719543457e-01,-3.623962402343750000e+00,-3.738403320312500000e-01,8.926391601562500000e-01
5.331363368034362793e+01,6.555324077606201172e+00,-8.140285491943361151e+00,-5.841851830482482910e-01,-3.623962402343750000e+00,-3.738403320312500000e-01,8.926391601562500000e-01
5.332703995704650879e+01,6.555324077606201172e+00,-8.140285491943361151e+00,-3.878606557846068781e-01,-4.005432128906250000e+00,-2.288818359375000000e-01,2.159118652343750000e+00
5.333923649787902832e+01,6.282385349273682529e+00,-8.140285491943361151e+00,-3.878606557846068781e-01,-4.005432128906250000e+00,-2.288818359375000000e-01,3.181457519531250000e+00
5.335465908050537109e+01,6.124367713928222656e+00,-8.188169479370117188e+00,-3.878606557846068781e-01,-4.066467285156250000e+00,9.994506835937500000e-01,2.159118652343750000e+00
5.336901140213012695e+01,6.124367713928222656e+00,-8.188169479370117188e+00,-4.644751250743865967e-01,-4.463195800781250000e+00,3.051757812500000000e-01,-3.433227539062500000e-01
5.338129711151123047e+01,6.378153324127197266e+00,-8.188169479370117188e+00,-4.979939460754393976e-01,-4.463195800781250000e+00,3.051757812500000000e-01,-3.433227539062500000e-01
5.339649415016174316e+01,6.378153324127197266e+00,-8.037335395812986505e+00,-4.979939460754393976e-01,-4.676818847656250000e+00,3.051757812500000000e-01,8.544921875000000000e-01
5.341114926338195801e+01,5.978321552276611328e+00,-8.037335395812986505e+00,-4.812345206737517755e-01,-4.768371582031250000e+00,-6.561279296875000000e-01,8.544921875000000000e-01
5.342324304580688477e+01,5.978321552276611328e+00,-8.140285491943361151e+00,-4.812345206737517755e-01,-4.768371582031250000e+00,-2.670288085937500000e-01,7.629394531250000000e-01
5.343873214721679688e+01,6.552929878234862393e+00,-8.140285491943361151e+00,-4.812345206737517755e-01,-3.753662109375000000e+00,-2.670288085937500000e-01,7.019042968750000000e-01
5.345065236091613770e+01,6.552929878234862393e+00,-8.061277389526367188e+00,-2.489969730377196988e-01,-3.753662109375000000e+00,-2.670288085937500000e-01,7.019042968750000000e-01
5.346533656120300293e+01,6.370970726013183594e+00,-8.061277389526367188e+00,-2.489969730377196988e-01,-3.753662109375000000e+00,2.059936523437500000e-01,1.312255859375000000e+00
5.348074793815612793e+01,6.311115741729736328e+00,-8.056488990783691406e+00,-6.392518281936645508e-01,-3.929138183593750000e+00,-3.738403320312500000e-01,1.525878906250000000e+00
5.349280238151550293e+01,6.311115741729736328e+00,-7.946355342864990234e+00,-6.392518281936645508e-01,-3.929138183593750000e+00,2.059936523437500000e-01,1.525878906250000000e+00
5.350740218162536621e+01,6.390124320983887607e+00,-7.946355342864990234e+00,-6.392518281936645508e-01,-4.295349121093750000e+00,-5.950927734375000000e-01,1.350402832031250000e+00
5.351951456069946289e+01,6.390124320983887607e+00,-8.180987358093263495e+00,-8.595184087753295898e-01,-4.295349121093750000e+00,-5.950927734375000000e-01,1.091003417968750000e+00
5.353472995758056641e+01,6.404489517211914062e+00,-8.180987358093263495e+00,-8.595184087753295898e-01,-3.906250000000000000e+00,-5.950927734375000000e-01,1.091003417968750000e+00
5.354880380630493164e+01,6.418854713439941406e+00,-8.039729118347167969e+00,-5.985504388809204102e-01,-3.906250000000000000e+00,-6.027221679687500000e-01,8.468627929687500000e-01
5.356090712547302246e+01,6.418854713439941406e+00,-8.039729118347167969e+00,-5.985504388809204102e-01,-3.906250000000000000e+00,6.103515625000000000e-02,8.468627929687500000e-01
5.357660412788391113e+01,6.366182327270507812e+00,-8.039729118347167969e+00,-5.985504388809204102e-01,-3.631591796875000000e+00,6.103515625000000000e-02,1.144409179687500000e+00
5.359123778343200684e+01,6.332663536071777344e+00,-8.013393402099611151e+00,-3.495534360408782959e-01,-3.631591796875000000e+00,6.103515625000000000e-02,1.144409179687500000e+00
5.360359954833984375e+01,6.332663536071777344e+00,-8.013393402099611151e+00,-3.495534360408782959e-01,-3.631591796875000000e+00,-4.577636718750000000e-02,3.051757812500000000e-01
5.361853361129760742e+01,6.358999729156494141e+00,-8.070854187011718750e+00,-6.464344263076782227e-01,-3.532409667968750000e+00,-1.602172851562500000e-01,3.051757812500000000e-01
5.363057494163513184e+01,6.358999729156494141e+00,-8.070854187011718750e+00,-6.464344263076782227e-01,-3.532409667968750000e+00,-4.577636718750000000e-02,9.689331054687500000e-01
5.364534091949462891e+01,6.205770492553710938e+00,-8.070854187011718750e+00,-6.464344263076782227e-01,-3.822326660156250000e+00,-6.866455078125000000e-02,9.689331054687500000e-01
5.365680074691772461e+01,6.205770492553710938e+00,-8.063671112060548651e+00,-3.088520169258117676e-01,-3.822326660156250000e+00,-6.866455078125000000e-02,7.095336914062500000e-01
5.367205142974853516e+01,6.239289760589599609e+00,-8.044517517089843750e+00,-4.979939460754393976e-01,-3.814697265625000000e+00,-3.509521484375000000e-01,4.806518554687500000e-01
5.368467044830322266e+01,6.315904140472412109e+00,-8.032546997070312500e+00,-4.716577231884002130e-01,-3.814697265625000000e+00,-4.196166992187500000e-01,4.806518554687500000e-01
5.369948172569274902e+01,6.339846134185791016e+00,-8.032546997070312500e+00,-4.716577231884002130e-01,-3.768920898437500000e+00,-3.509521484375000000e-01,1.068115234375000000e+00
5.371424746513366699e+01,6.339846134185791016e+00,-8.027758598327638495e+00,-4.141968786716461182e-01,-3.952026367187500000e+00,-6.790161132812500000e-01,1.068115234375000000e+00
5.372871923446655273e+01,6.339846134185791016e+00,-8.159439086914062500e+00,-4.141968786716461182e-01,-3.463745117187500000e+00,-1.449584960937500000e-01,9.918212890625000000e-02
5.374353933334350586e+01,6.725312232971191406e+00,-8.271966934204103339e+00,-5.051765441894531250e-01,-4.455566406250000000e+00,-1.449584960937500000e-01,9.918212890625000000e-02
5.375481510162353516e+01,6.725312232971191406e+00,-8.271966934204103339e+00,-6.847416758537292480e-01,-3.089904785156250000e+00,6.561279296875000000e-01,1.182556152343750000e+00
5.377062845230102539e+01,6.145915508270263672e+00,-8.152256965637207031e+00,-5.051765441894531250e-01,-4.455566406250000000e+00,6.561279296875000000e-01,1.182556152343750000e+00
5.378174996376037598e+01,6.145915508270263672e+00,-8.034940719604492188e+00,-6.847416758537292480e-01,-3.089904785156250000e+00,6.561279296875000000e-01,-1.525878906250000000e-02
5.379485154151916504e+01,6.507440090179442471e+00,-8.034940719604492188e+00,-7.350199222564697266e-01,-3.990173339843750000e+00,-3.509521484375000000e-01,-1.525878906250000000e-02
5.381272912025451660e+01,6.507440090179442471e+00,-8.034940719604492188e+00,-7.350199222564697266e-01,-3.990173339843750000e+00,-3.509521484375000000e-01,9.994506835937500000e-01
5.382346773147583008e+01,6.229712486267089844e+00,-8.080430984497070312e+00,-7.350199222564697266e-01,-3.990173339843750000e+00,-3.509521484375000000e-01,9.994506835937500000e-01
5.383704304695129395e+01,6.227318286895752841e+00,-8.080430984497070312e+00,-6.248866319656372070e-01,-3.822326660156250000e+00,-4.043579101562500000e-01,7.400512695312500000e-01
5.385169601440429688e+01,6.229712486267089844e+00,-8.080430984497070312e+00,-6.248866319656372070e-01,-3.822326660156250000e+00,-4.043579101562500000e-01,7.400512695312500000e-01
5.386420893669128418e+01,6.404489517211914062e+00,-8.101978302001951349e+00,-6.248866319656372070e-01,-4.142761230468750000e+00,-4.043579101562500000e-01,7.171630859375000000e-01
5.387991690635681152e+01,6.404489517211914062e+00,-8.101978302001951349e+00,-7.182605266571044922e-01,-4.142761230468750000e+00,-2.441406250000000000e-01,1.258850097656250000e+00
5.389368605613708496e+01,6.366182327270507812e+00,-8.101978302001951349e+00,-7.182605266571044922e-01,-3.974914550781250000e+00,-2.441406250000000000e-01,9.994506835937500000e-01
5.390692400932312012e+01,6.318298339843750000e+00,-8.125920295715332031e+00,-5.363011956214904785e-01,-3.898620605468750000e+00,-1.525878906250000000e-02,9.994506835937500000e-01
5.391779637336730957e+01,6.318298339843750000e+00,-8.125920295715332031e+00,-5.363011956214904785e-01,-3.974914550781250000e+00,-3.204345703125000000e-01,7.934570312500000000e-01
5.393311262130737305e+01,6.351817131042480469e+00,-8.125920295715332031e+00,-5.363011956214904785e-01,-3.898620605468750000e+00,2.288818359375000000e-02,7.934570312500000000e-01
5.394550800323486328e+01,6.351817131042480469e+00,-7.996633529663085938e+00,-5.793967843055725098e-01,-3.990173339843750000e+00,6.103515625000000000e-02,1.029968261718750000e+00
5.396010804176330566e+01,6.236895561218262607e+00,-7.996633529663085938e+00,-5.793967843055725098e-01,-4.188537597656250000e+00,6.103515625000000000e-02,1.029968261718750000e+00
5.397613191604614258e+01,6.236895561218262607e+00,-7.996633529663085938e+00,-5.793967843055725098e-01,-4.188537597656250000e+00,-1.525878906250000000e-01,7.247924804687500000e-01
5.398781514167785645e+01,6.378153324127197266e+00,-8.032546997070312500e+00,-5.961562395095825195e-01,-4.264831542968750000e+00,-3.356933593750000000e-01,7.247924804687500000e-01
5.400199174880981445e+01,6.378153324127197266e+00,-8.032546997070312500e+00,-6.392518281936645508e-01,-4.264831542968750000e+00,-3.204345703125000000e-01,7.247924804687500000e-01
5.401434898376464844e+01,6.335057735443115234e+00,-8.032546997070312500e+00,-6.488286256790161133e-01,-4.264831542968750000e+00,-3.204345703125000000e-01,1.144409179687500000e+00
5.402875161170959473e+01,6.335057735443115234e+00,-8.032546997070312500e+00,-6.488286256790161133e-01,-4.333496093750000000e+00,-3.204345703125000000e-01,1.144409179687500000e+00
5.404159188270568848e+01,6.363788127899169922e+00,-8.032546997070312500e+00,-4.788403213024138849e-01,-4.333496093750000000e+00,-4.119873046875000000e-01,5.798339843750000000e-01
5.405592274665832520e+01,6.473921298980712891e+00,-8.113949775695799005e+00,-4.788403213024138849e-01,-4.333496093750000000e+00,-4.119873046875000000e-01,5.798339843750000000e-01
5.407143998146057129e+01,6.473921298980712891e+00,-8.113949775695799005e+00,-5.315127968788146973e-01,-4.020690917968750000e+00,-3.356933593750000000e-01,1.083374023437500000e+00
5.408336043357849121e+01,6.315904140472412109e+00,-8.068459510803222656e+00,-5.793967843055725098e-01,-4.020690917968750000e+00,-1.449584960937500000e-01,1.083374023437500000e+00
