# elapsed time, f2_acc_x, f2_acc_y, f2_acc_z, f2_gyro_x, f2_gyro_y, f2_gyro_z
3.354433465003967285e+01,-7.419631004333496094e+00,-4.922478675842285156e+00,4.220977306365966797e+00,3.814697265625000000e-01,2.670288085937500000e-01,-1.831054687500000000e-01
3.356026768684387207e+01,-7.450755596160888672e+00,-4.927267074584960938e+00,4.204217910766602451e+00,3.814697265625000000e-01,2.670288085937500000e-01,-1.831054687500000000e-01
3.357141947746276855e+01,-7.450755596160888672e+00,-4.927267074584960938e+00,4.168304920196533203e+00,1.678466796875000000e-01,1.678466796875000000e-01,-3.051757812500000000e-01
3.358699202537536621e+01,-7.460332393646240234e+00,-4.862623691558837891e+00,4.168304920196533203e+00,1.678466796875000000e-01,1.678466796875000000e-01,-1.144409179687500000e-01
3.359944033622741699e+01,-7.445967197418212891e+00,-4.862623691558837891e+00,4.206612110137940341e+00,2.059936523437500000e-01,1.678466796875000000e-01,-1.144409179687500000e-01
3.361422705650329590e+01,-7.445967197418212891e+00,-4.862623691558837891e+00,4.206612110137940341e+00,2.059936523437500000e-01,6.103515625000000000e-02,-1.144409179687500000e-01
3.362875986099243164e+01,-7.445967197418212891e+00,-4.843470096588134766e+00,4.197035312652587891e+00,2.059936523437500000e-01,-2.288818359375000000e-02,-2.288818359375000000e-02
3.364298820495605469e+01,-7.438784599304199219e+00,-4.862623691558837891e+00,4.197035312652587891e+00,1.373291015625000000e-01,3.814697265625000000e-02,-2.288818359375000000e-02
3.365577745437622070e+01,-7.433996200561522549e+00,-4.951209068298339844e+00,4.235342502593993252e+00,2.212524414062500000e-01,3.814697265625000000e-02,-2.288818359375000000e-02
3.366813635826110840e+01,-7.405265808105468750e+00,-4.951209068298339844e+00,4.235342502593993252e+00,3.128051757812500000e-01,3.814697265625000000e-02,-2.288818359375000000e-02
3.368510413169860840e+01,-7.405265808105468750e+00,-4.874594688415527344e+00,4.247313976287841797e+00,3.128051757812500000e-01,1.754760742187500000e-01,-2.517700195312500000e-01
3.369708323478698730e+01,-7.407660007476807529e+00,-4.874594688415527344e+00,4.211400508880615234e+00,3.738403320312500000e-01,1.296997070312500000e-01,-2.517700195312500000e-01
3.371040153503417969e+01,-7.424419403076172763e+00,-4.924872875213623047e+00,4.276044368743896484e+00,2.593994140625000000e-01,1.296997070312500000e-01,-2.517700195312500000e-01
3.372684168815612793e+01,-7.443572998046875000e+00,-4.924872875213623047e+00,4.211400508880615234e+00,3.814697265625000000e-01,1.296997070312500000e-01,-1.068115234375000000e-01
3.373685598373413086e+01,-7.489062786102294922e+00,-4.886565685272216797e+00,4.177881717681884766e+00,3.814697265625000000e-01,-6.103515625000000000e-02,-1.068115234375000000e-01
3.375255799293518066e+01,-7.445967197418212891e+00,-4.831499099731445312e+00,4.177881717681884766e+00,3.814697265625000000e-01,-6.103515625000000000e-02,-1.068115234375000000e-01
3.376628327369689941e+01,-7.460332393646240234e+00,-4.886565685272216797e+00,4.189852714538573331e+00,4.653930664062500000e-01,-6.103515625000000000e-02,-1.907348632812500000e-01
3.377824711799621582e+01,-7.445967197418212891e+00,-4.817133903503417969e+00,4.230554103851318359e+00,3.051757812500000000e-01,-6.866455078125000000e-02,-1.907348632812500000e-01
3.379159903526306152e+01,-7.457938194274902344e+00,-4.817133903503417969e+00,4.189852714538573331e+00,3.051757812500000000e-01,1.907348632812500000e-01,-1.907348632812500000e-01
3.380763816833496094e+01,-7.441178798675537109e+00,-4.817133903503417969e+00,4.230554103851318359e+00,2.136230468750000000e-01,1.449584960937500000e-01,-1.907348632812500000e-01
3.381875967979431152e+01,-7.429207801818847656e+00,-4.841075897216796875e+00,4.153939723968506748e+00,2.136230468750000000e-01,1.449584960937500000e-01,-1.068115234375000000e-01
3.383334708213806152e+01,-7.419631004333496094e+00,-4.886565685272216797e+00,4.254496574401856357e+00,2.899169921875000000e-01,1.449584960937500000e-01,-2.899169921875000000e-01
3.384972143173217773e+01,-7.429207801818847656e+00,-4.886565685272216797e+00,4.170699119567871094e+00,3.738403320312500000e-01,3.814697265625000000e-02,-2.899169921875000000e-01
3.386056971549987793e+01,-7.405265808105468750e+00,-4.884171485900878906e+00,4.177881717681884766e+00,2.899169921875000000e-01,2.059936523437500000e-01,-2.899169921875000000e-01
3.387450909614562988e+01,-7.422025203704833984e+00,-4.884171485900878906e+00,4.177881717681884766e+00,4.119873046875000000e-01,1.220703125000000000e-01,-4.043579101562500000e-01
3.388602972030639648e+01,-7.422025203704833984e+00,-4.884171485900878906e+00,4.177881717681884766e+00,1.602172851562500000e-01,1.220703125000000000e-01,-1.449584960937500000e-01
3.390169954299926758e+01,-7.422025203704833984e+00,-4.917690277099608487e+00,4.170699119567871094e+00,2.899169921875000000e-01,1.220703125000000000e-01,-6.103515625000000000e-02
3.391415405273437500e+01,-7.445967197418212891e+00,-4.917690277099608487e+00,4.170699119567871094e+00,2.899169921875000000e-01,-1.907348632812500000e-01,-6.103515625000000000e-02
3.392914366722106934e+01,-7.417236804962157315e+00,-4.917690277099608487e+00,4.170699119567871094e+00,3.280639648437500000e-01,1.907348632812500000e-01,-5.035400390625000000e-01
3.394379520416259766e+01,-7.455543994903564453e+00,-4.857835292816162109e+00,4.151545524597167969e+00,3.280639648437500000e-01,1.907348632812500000e-01,-5.035400390625000000e-01
3.395635890960693359e+01,-7.455543994903564453e+00,-4.848258495330810547e+00,4.151545524597167969e+00,3.204345703125000000e-01,1.907348632812500000e-01,-1.907348632812500000e-01
3.397119092941284180e+01,-7.455543994903564453e+00,-4.843470096588134766e+00,4.156333923339843750e+00,3.204345703125000000e-01,6.103515625000000000e-02,-1.907348632812500000e-01
3.398193597793579102e+01,-7.393294811248778409e+00,-4.843470096588134766e+00,4.261679172515868252e+00,3.204345703125000000e-01,6.103515625000000000e-02,-3.814697265625000000e-01
3.399797797203063965e+01,-7.376535415649414062e+00,-4.908113479614257812e+00,4.261679172515868252e+00,3.433227539062500000e-01,6.103515625000000000e-02,-3.814697265625000000e-01
3.401044201850891113e+01,-7.369352817535400391e+00,-4.908113479614257812e+00,4.261679172515868252e+00,3.585815429687500000e-01,4.959106445312500000e-01,-7.629394531250000000e-01
3.402502560615539551e+01,-7.376535415649414062e+00,-4.884171485900878906e+00,4.211400508880615234e+00,3.585815429687500000e-01,8.087158203125000000e-01,-7.171630859375000000e-01
3.403957962989807129e+01,-7.393294811248778409e+00,-4.836287498474121094e+00,4.199429512023926669e+00,3.585815429687500000e-01,1.014709472656250000e+00,-1.022338867187500000e+00
3.405191493034362793e+01,-7.443572998046875000e+00,-4.831499099731445312e+00,4.199429512023926669e+00,6.332397460937500000e-01,8.087158203125000000e-01,-7.171630859375000000e-01
3.406658649444580078e+01,-7.503427982330322266e+00,-4.723759651184082031e+00,4.268861770629883701e+00,6.713867187500000000e-01,2.822875976562500000e-01,-1.022338867187500000e+00
3.407915997505187988e+01,-7.503427982330322266e+00,-4.630385875701903409e+00,4.268861770629883701e+00,6.942749023437500000e-01,2.822875976562500000e-01,-1.861572265625000000e+00
3.409389162063598633e+01,-7.316680431365967685e+00,-4.630385875701903409e+00,4.158728122711181641e+00,6.942749023437500000e-01,5.035400390625000000e-01,-1.861572265625000000e+00
3.410641431808471680e+01,-7.316680431365967685e+00,-4.872200489044189453e+00,4.156333923339843750e+00,1.266479492187500000e+00,7.553100585937500000e-01,-1.235961914062500000e+00
3.412031316757202148e+01,-7.431602001190185547e+00,-4.872200489044189453e+00,4.158728122711181641e+00,1.495361328125000000e+00,8.239746093750000000e-01,-9.078979492187500000e-01
3.413613176345825195e+01,-7.508216381072997159e+00,-4.872200489044189453e+00,4.156333923339843750e+00,1.327514648437500000e+00,7.553100585937500000e-01,-1.235961914062500000e+00
3.414854335784912109e+01,-7.479485988616942471e+00,-4.881777286529541016e+00,4.096478939056396484e+00,1.861572265625000000e+00,-1.449584960937500000e-01,-2.044677734375000000e+00
3.416335916519165039e+01,-7.479485988616942471e+00,-4.893748283386231357e+00,4.096478939056396484e+00,1.861572265625000000e+00,-1.449584960937500000e-01,-2.120971679687500000e+00
3.417469835281372070e+01,-7.422025203704833984e+00,-4.893748283386231357e+00,4.156333923339843750e+00,1.922607421875000000e+00,5.111694335937500000e-01,-2.189636230468750000e+00
3.419060635566711426e+01,-7.278373241424559659e+00,-5.063736438751221591e+00,4.156333923339843750e+00,1.991271972656250000e+00,5.111694335937500000e-01,-2.120971679687500000e+00
3.420176100730895996e+01,-7.278373241424559659e+00,-5.063736438751221591e+00,4.098873138427733487e+00,1.991271972656250000e+00,9.918212890625000000e-01,-2.868652343750000000e+00
3.421718120574951172e+01,-7.364564418792724609e+00,-4.754884719848632812e+00,4.074931144714356357e+00,2.449035644531250000e+00,9.155273437500000000e-02,-2.578735351562500000e+00
3.422939872741699219e+01,-7.501033782958983487e+00,-4.750096321105957031e+00,4.074931144714356357e+00,2.708435058593750000e+00,9.155273437500000000e-02,-2.578735351562500000e+00
3.424400639533996582e+01,-7.501033782958983487e+00,-4.735730648040772373e+00,4.206612110137940341e+00,2.708435058593750000e+00,9.155273437500000000e-02,-2.578735351562500000e+00
3.425873565673828125e+01,-7.376535415649414062e+00,-4.735730648040772373e+00,4.206612110137940341e+00,2.151489257812500000e+00,1.121520996093750000e+00,-1.480102539062500000e+00
3.427318215370178223e+01,-7.376535415649414062e+00,-4.807557106018066406e+00,4.218583106994628906e+00,1.754760742187500000e+00,1.121520996093750000e+00,-1.007080078125000000e+00
3.428545403480529785e+01,-7.433996200561522549e+00,-5.125985622406005859e+00,4.180275917053223544e+00,2.151489257812500000e+00,1.121520996093750000e+00,-1.007080078125000000e+00
3.429792308807373047e+01,-7.433996200561522549e+00,-5.090072631835937500e+00,4.048594951629638672e+00,1.754760742187500000e+00,2.517700195312500000e-01,-2.433776855468750000e+00
3.431511688232421875e+01,-7.340622425079346591e+00,-5.090072631835937500e+00,4.017470359802246094e+00,1.655578613281250000e+00,6.027221679687500000e-01,-2.433776855468750000e+00
3.432634210586547852e+01,-7.268796443939208984e+00,-4.757278919219971591e+00,3.895366191864013672e+00,1.655578613281250000e+00,3.280639648437500000e-01,6.866455078125000000e-02
3.433937907218933105e+01,-7.206546783447266513e+00,-4.757278919219971591e+00,3.986345767974853516e+00,2.021789550781250000e+00,6.027221679687500000e-01,6.866455078125000000e-02
3.435702157020568848e+01,-7.110778808593750000e+00,-4.955997467041016513e+00,3.986345767974853516e+00,2.220153808593750000e+00,7.400512695312500000e-01,6.179809570312500000e-01
3.436806869506835938e+01,-7.110778808593750000e+00,-4.955997467041016513e+00,4.240131378173828125e+00,2.220153808593750000e+00,1.861572265625000000e+00,-3.280639648437500000e-01
3.438168096542358398e+01,-7.671021938323974609e+00,-5.066130638122558594e+00,4.283226966857910156e+00,1.991271972656250000e+00,7.400512695312500000e-01,-7.247924804687500000e-01
3.439609718322753906e+01,-7.671021938323974609e+00,-4.695029258728027344e+00,4.390965938568115234e+00,7.705688476562500000e-01,3.509521484375000000e-01,-7.247924804687500000e-01
3.440901398658752441e+01,-7.448361396789550781e+00,-4.795586109161376953e+00,4.283226966857910156e+00,4.959106445312500000e-01,3.509521484375000000e-01,-1.823425292968750000e+00
3.442057466506958008e+01,-7.386112213134766513e+00,-4.795586109161376953e+00,4.455609321594238281e+00,4.959106445312500000e-01,-6.790161132812500000e-01,-3.433227539062500000e-01
3.443803405761718750e+01,-6.921637058258057529e+00,-4.795586109161376953e+00,4.309563159942626953e+00,5.416870117187500000e-01,6.332397460937500000e-01,-3.433227539062500000e-01
3.444894170761108398e+01,-6.921637058258057529e+00,-4.635174274444580078e+00,4.309563159942626953e+00,5.416870117187500000e-01,6.332397460937500000e-01,-3.433227539062500000e-01
3.446164107322692871e+01,-7.544129371643066406e+00,-4.635174274444580078e+00,4.309563159942626953e+00,-3.433227539062500000e-01,1.167297363281250000e+00,-7.705688476562500000e-01
3.447986340522766113e+01,-7.814674377441406250e+00,-4.644751071929931641e+00,4.204217910766602451e+00,-7.476806640625000000e-01,2.052307128906250000e+00,-1.129150390625000000e+00
3.449050068855285645e+01,-7.544129371643066406e+00,-5.008669853210449219e+00,4.189852714538573331e+00,-7.476806640625000000e-01,2.052307128906250000e+00,-1.945495605468750000e+00
3.450489044189453125e+01,-7.048529624938964844e+00,-4.675875663757324219e+00,4.000710964202881748e+00,-2.914428710937500000e+00,2.052307128906250000e+00,-1.945495605468750000e+00
3.451923894882202148e+01,-7.048529624938964844e+00,-4.750096321105957031e+00,4.000710964202881748e+00,-2.082824707031250000e+00,1.708984375000000000e+00,-2.792358398437500000e+00
3.453135132789611816e+01,-7.213729381561278409e+00,-4.750096321105957031e+00,4.041412353515625000e+00,-2.914428710937500000e+00,1.708984375000000000e+00,-2.426147460937500000e+00
3.454324984550476074e+01,-7.331045627593994141e+00,-4.750096321105957031e+00,4.041412353515625000e+00,-6.423950195312500000e+00,2.586364746093750000e+00,-2.792358398437500000e+00
3.455924344062805176e+01,-7.213729381561278409e+00,-5.027823448181152344e+00,4.015076160430908203e+00,-6.423950195312500000e+00,2.777099609375000000e+00,-3.089904785156250000e+00
3.457059049606323242e+01,-7.405265808105468750e+00,-4.699817657470703125e+00,3.991134166717528853e+00,-5.142211914062500000e+00,2.830505371093750000e+00,-3.089904785156250000e+00
3.458618116378784180e+01,-7.173027992248535156e+00,-5.501875400543212891e+00,4.003105163574218750e+00,-4.959106445312500000e+00,7.125854492187500000e+00,-3.532409667968750000e+00
3.460097432136535645e+01,-7.180210590362548828e+00,-4.627991676330566406e+00,3.919308185577392578e+00,-4.188537597656250000e+00,2.830505371093750000e+00,-1.403808593750000000e+00
3.461201596260070801e+01,-7.180210590362548828e+00,-5.020640850067138672e+00,3.933673381805419922e+00,-2.670288085937500000e+00,5.310058593750000000e+00,-2.250671386718750000e+00
3.462791395187377930e+01,-7.180210590362548828e+00,-5.020640850067138672e+00,3.919308185577392578e+00,-3.196716308593750000e+00,5.310058593750000000e+00,-2.250671386718750000e+00
3.463997530937194824e+01,-7.797914981842041016e+00,-5.020640850067138672e+00,3.933673381805419922e+00,-3.196716308593750000e+00,7.057189941406250000e+00,-2.410888671875000000e+00
3.465454101562500000e+01,-7.184998989105224609e+00,-5.073313236236572266e+00,4.218583106994628906e+00,-5.722045898437500000e+00,7.057189941406250000e+00,-3.105163574218750000e+00
3.466718459129333496e+01,-7.184998989105224609e+00,-5.169081211090087891e+00,4.218583106994628906e+00,-5.722045898437500000e+00,3.860473632812500000e+00,-3.105163574218750000e+00
3.468163633346557617e+01,-7.158662796020507812e+00,-5.169081211090087891e+00,3.907337188720703125e+00,-5.966186523437500000e+00,1.441955566406250000e+00,-1.831054687500000000e+00
3.469733572006225586e+01,-7.158662796020507812e+00,-4.994304656982421875e+00,3.907337188720703125e+00,-5.966186523437500000e+00,1.441955566406250000e+00,-1.831054687500000000e+00
3.470756387710571289e+01,-6.792350292205810547e+00,-4.994304656982421875e+00,3.931279182434082031e+00,-5.966186523437500000e+00,8.186340332031250000e+00,-5.294799804687500000e+00
3.472347068786621094e+01,-7.010222434997558594e+00,-4.994304656982421875e+00,3.964797973632812944e+00,-5.950927734375000000e+00,8.186340332031250000e+00,-5.294799804687500000e+00
3.473609113693237305e+01,-6.900089263916016513e+00,-5.054159641265869141e+00,3.931279182434082031e+00,-4.554748535156250000e+00,8.186340332031250000e+00,-5.294799804687500000e+00
3.475095772743225098e+01,-7.010222434997558594e+00,-5.054159641265869141e+00,3.924096584320068803e+00,-2.548217773437500000e+00,6.256103515625000000e+00,-3.250122070312500000e+00
3.476679253578186035e+01,-7.343016624450683594e+00,-5.054159641265869141e+00,3.924096584320068803e+00,-1.213073730468750000e+00,6.256103515625000000e+00,-3.250122070312500000e+00
3.477831172943115234e+01,-8.034940719604492188e+00,-4.809951305389403409e+00,3.924096584320068803e+00,-1.213073730468750000e+00,3.753662109375000000e+00,-3.250122070312500000e+00
3.478974032402038574e+01,-8.034940719604492188e+00,-4.656722068786621094e+00,3.845087766647338867e+00,-3.189086914062500000e+00,-8.392333984375000000e-02,-4.478454589843750000e+00
3.480451726913452148e+01,-7.740454196929932529e+00,-4.656722068786621094e+00,3.804386377334594282e+00,-3.189086914062500000e+00,7.629394531250000000e-02,-4.623413085937500000e+00
3.482049608230590820e+01,-7.010222434997558594e+00,-5.458779811859130859e+00,3.804386377334594282e+00,1.174926757812500000e+00,-8.392333984375000000e-02,-4.478454589843750000e+00
3.483137512207031250e+01,-7.010222434997558594e+00,-5.458779811859130859e+00,3.986345767974853516e+00,1.174926757812500000e+00,7.629394531250000000e-02,-4.623413085937500000e+00
3.484647178649902344e+01,-6.931213855743407315e+00,-5.458779811859130859e+00,3.986345767974853516e+00,-1.373291015625000000e-01,2.799987792968750000e+00,-5.004882812500000000e+00
3.485952663421630859e+01,-7.077260017395020419e+00,-5.135562419891356534e+00,3.849876165390015093e+00,-1.373291015625000000e-01,2.799987792968750000e+00,-5.004882812500000000e+00
3.487420201301574707e+01,-7.546523571014403409e+00,-5.185840606689453125e+00,3.849876165390015093e+00,4.348754882812500000e-01,-4.135131835937500000e+00,1.754760742187500000e-01
3.488579511642456055e+01,-7.678204536437987393e+00,-5.185840606689453125e+00,3.991134166717528853e+00,7.247924804687500000e-01,-4.135131835937500000e+00,1.754760742187500000e-01
3.490318727493286133e+01,-7.769184589385986328e+00,-5.185840606689453125e+00,4.108449935913086826e+00,4.348754882812500000e-01,-4.348754882812500000e+00,-1.296997070312500000e+00
3.491429710388183594e+01,-7.678204536437987393e+00,-5.236118793487548828e+00,4.094084739685058594e+00,-1.815795898437500000e+00,3.089904785156250000e+00,-7.019042968750000000e+00
3.492841506004333496e+01,-7.105990409851074219e+00,-5.236118793487548828e+00,4.094084739685058594e+00,-3.471374511718750000e+00,6.126403808593750000e+00,-7.019042968750000000e+00
3.494514012336730957e+01,-7.105990409851074219e+00,-5.236118793487548828e+00,3.869029998779296875e+00,-3.730773925781250000e+00,6.126403808593750000e+00,-7.019042968750000000e+00
3.495663499832153320e+01,-7.738059997558593750e+00,-5.446808815002441406e+00,3.869029998779296875e+00,-5.035400390625000000e+00,5.477905273437500000e+00,-4.447937011718750000e+00
3.497026872634887695e+01,-7.738059997558593750e+00,-5.446808815002441406e+00,3.869029998779296875e+00,-5.035400390625000000e+00,6.866455078125000000e-02,-9.384155273437500000e-01
3.498398637771606445e+01,-7.196969985961914062e+00,-5.446808815002441406e+00,3.869029998779296875e+00,-3.433227539062500000e-01,6.866455078125000000e-02,-9.384155273437500000e-01
3.499627470970153809e+01,-6.821080684661865234e+00,-5.485116004943847656e+00,4.209006309509276456e+00,-3.433227539062500000e-01,6.866455078125000000e-02,2.426147460937500000e+00
3.500855469703674316e+01,-6.821080684661865234e+00,-5.267243862152099609e+00,4.209006309509276456e+00,-1.998901367187500000e+00,-1.602172851562500000e-01,7.186889648437500000e+00
3.502614712715148926e+01,-7.182604789733887607e+00,-5.267243862152099609e+00,3.509899616241455078e+00,-4.592895507812500000e+00,1.121520996093750000e+00,7.186889648437500000e+00
3.503734302520751953e+01,-7.220911979675292969e+00,-5.197811603546143466e+00,3.457227230072021040e+00,-4.592895507812500000e+00,1.121520996093750000e+00,7.041931152343750000e+00
3.505019783973693848e+01,-7.659050941467285156e+00,-5.197811603546143466e+00,3.509899616241455078e+00,-2.952575683593750000e+00,1.121520996093750000e+00,6.500244140625000000e+00
3.506838917732238770e+01,-7.704540729522705078e+00,-5.197811603546143466e+00,3.622427225112915039e+00,-1.770019531250000000e+00,8.010864257812500000e-01,6.500244140625000000e+00
3.507980966567993164e+01,-7.704540729522705078e+00,-5.422866821289063388e+00,3.622427225112915039e+00,2.372741699218750000e+00,4.348754882812500000e-01,2.830505371093750000e+00
3.509243273735046387e+01,-7.089231014251708984e+00,-5.310339450836181641e+00,3.720589399337768999e+00,2.372741699218750000e+00,4.348754882812500000e-01,-1.068115234375000000e+00
3.511061429977416992e+01,-7.089231014251708984e+00,-5.310339450836181641e+00,3.438073635101318359e+00,8.087158203125000000e-01,4.348754882812500000e-01,-1.068115234375000000e+00
3.512212920188903809e+01,-7.182604789733887607e+00,-5.310339450836181641e+00,3.928884983062743697e+00,-5.874633789062500000e-01,4.570007324218750000e+00,3.227233886718750000e+00
3.513490653038024902e+01,-7.716511726379393643e+00,-5.374982833862304688e+00,3.928884983062743697e+00,8.087158203125000000e-01,-5.416870117187500000e-01,3.227233886718750000e+00
3.514945864677429199e+01,-7.793126583099365234e+00,-5.374982833862304688e+00,3.928884983062743697e+00,4.272460937500000000e-01,-4.058837890625000000e+00,3.227233886718750000e+00
3.516198134422302246e+01,-7.793126583099365234e+00,-5.374982833862304688e+00,3.569754600524902344e+00,4.272460937500000000e-01,-4.058837890625000000e+00,2.487182617187500000e+00
3.517317461967468262e+01,-7.249642848968505859e+00,-5.597643375396728516e+00,3.569754600524902344e+00,4.272460937500000000e-01,2.250671386718750000e+00,2.593994140625000000e-01
3.518921089172363281e+01,-7.249642848968505859e+00,-5.597643375396728516e+00,4.115632534027100498e+00,1.831054687500000000e+00,2.250671386718750000e+00,2.593994140625000000e-01
3.520377922058105469e+01,-7.455543994903564453e+00,-4.908113479614257812e+00,4.328716754913330078e+00,1.831054687500000000e+00,1.548767089843750000e+00,2.593994140625000000e-01
3.521650362014770508e+01,-7.479485988616942471e+00,-4.649539470672606534e+00,4.328716754913330078e+00,1.258850097656250000e+00,-1.304626464843750000e+00,3.181457519531250000e+00
3.523037242889404297e+01,-7.484274387359619141e+00,-4.908113479614257812e+00,4.328716754913330078e+00,1.029968261718750000e+00,-4.867553710937500000e+00,2.769470214843750000e+00
3.524340987205505371e+01,-7.740454196929932529e+00,-5.228936195373535156e+00,2.762908697128295898e+00,1.258850097656250000e+00,-4.867553710937500000e+00,2.769470214843750000e+00
3.525802111625671387e+01,-7.620743751525878906e+00,-5.228936195373535156e+00,2.762908697128295898e+00,5.432128906250000000e+00,-3.952026367187500000e+00,-5.874633789062500000e-01
3.527307939529418945e+01,-7.620743751525878906e+00,-5.446808815002441406e+00,2.762908697128295898e+00,6.103515625000000000e+00,-2.410888671875000000e+00,-5.874633789062500000e-01
3.528476047515869141e+01,-7.620743751525878906e+00,-5.142745018005371094e+00,3.078943252563477007e+00,8.529663085937500000e+00,-3.952026367187500000e+00,-3.814697265625000000e-01
3.530027604103088379e+01,-7.666233539581298828e+00,-5.142745018005371094e+00,4.005499362945556641e+00,8.529663085937500000e+00,-2.746582031250000000e-01,1.144409179687500000e-01
3.531106543540954590e+01,-7.908048152923583984e+00,-5.018246650695800781e+00,4.039018154144287109e+00,3.677368164062500000e+00,-2.822875976562500000e+00,1.144409179687500000e-01
3.532836103439331055e+01,-7.991845130920410156e+00,-4.948814868927001953e+00,4.019864559173583984e+00,3.677368164062500000e+00,-2.822875976562500000e+00,1.144409179687500000e-01
3.533982205390930176e+01,-7.991845130920410156e+00,-4.876988887786865234e+00,4.019864559173583984e+00,6.065368652343750000e+00,-5.302429199218750000e+00,1.693725585937500000e+00
3.535454559326171875e+01,-7.809885978698729581e+00,-4.776432514190673828e+00,3.579331398010253906e+00,7.904052734375000000e+00,-5.302429199218750000e+00,1.693725585937500000e+00
3.536933732032775879e+01,-7.783549785614013672e+00,-4.876988887786865234e+00,3.557783603668212891e+00,9.010314941406250000e+00,-5.302429199218750000e+00,1.693725585937500000e+00
3.538026905059814453e+01,-7.606378555297852451e+00,-5.068524837493896484e+00,3.579331398010253906e+00,1.390838623046875000e+01,-4.348754882812500000e-01,1.167297363281250000e+00
3.539596414566040039e+01,-7.606378555297852451e+00,-5.068524837493896484e+00,3.881000995635985440e+00,1.390838623046875000e+01,-1.403808593750000000e+00,1.747131347656250000e+00
3.540837526321411133e+01,-7.321468830108642578e+00,-5.035006046295166016e+00,4.498704910278320312e+00,9.269714355468750000e+00,-1.403808593750000000e+00,1.747131347656250000e+00
3.542286348342895508e+01,-7.685387134552002841e+00,-4.991910457611083984e+00,4.043806552886962891e+00,8.926391601562500000e+00,-4.356384277343750000e+00,1.747131347656250000e+00
3.543438553810119629e+01,-7.515398979187012607e+00,-4.991910457611083984e+00,4.043806552886962891e+00,8.926391601562500000e+00,-4.356384277343750000e+00,2.059936523437500000e-01
3.545047068595886230e+01,-7.515398979187012607e+00,-4.587290287017822266e+00,3.239354848861694336e+00,1.332855224609375000e+01,-6.187438964843750000e+00,2.059936523437500000e-01
3.546528291702270508e+01,-7.505822181701660156e+00,-5.097255229949951172e+00,3.239354848861694336e+00,1.332855224609375000e+01,-2.487182617187500000e+00,7.972717285156250000e+00
3.547711515426635742e+01,-7.505822181701660156e+00,-4.321534156799316406e+00,3.533841609954833984e+00,1.145935058593750000e+01,-1.697540283203125000e+01,8.476257324218750000e+00
3.549410128593444824e+01,-7.129932403564452237e+00,-5.097255229949951172e+00,4.958391666412353516e+00,1.145935058593750000e+01,-2.487182617187500000e+00,7.972717285156250000e+00
3.550501704216003418e+01,-6.995857238769531250e+00,-4.903325080871582031e+00,4.707000255584716797e+00,1.322937011718750000e+01,3.654479980468750000e+00,-6.713867187500000000e-01
3.551815605163574219e+01,-6.995857238769531250e+00,-4.929661273956298828e+00,4.707000255584716797e+00,1.350402832031250000e+01,3.654479980468750000e+00,-6.713867187500000000e-01
3.553332233428955078e+01,-7.982268333435058594e+00,-4.929661273956298828e+00,4.352658748626708984e+00,1.835632324218750000e+01,3.356933593750000000e-01,-6.713867187500000000e-01
3.554565644264221191e+01,-8.195352554321289062e+00,-4.929661273956298828e+00,3.287238836288451704e+00,1.931762695312500000e+01,-8.300781250000000000e+00,-7.736206054687500000e+00
3.555786943435668945e+01,-8.195352554321289062e+00,-4.999093055725097656e+00,4.352658748626708984e+00,1.835632324218750000e+01,3.356933593750000000e-01,-7.736206054687500000e+00
3.557501888275146484e+01,-7.524975776672362393e+00,-5.207388401031494141e+00,3.277662038803100586e+00,2.046203613281250000e+01,-8.300781250000000000e+00,-5.165100097656250000e+00
3.558632040023803711e+01,-6.390124320983887607e+00,-5.207388401031494141e+00,5.228936195373535156e+00,3.617095947265625000e+01,1.396179199218750000e+00,1.411437988281250000e+00
3.559994029998779297e+01,-7.524975776672362393e+00,-5.157110214233398438e+00,3.277662038803100586e+00,3.816986083984375000e+01,-1.033782958984375000e+01,-5.165100097656250000e+00
3.561709642410278320e+01,-9.136273384094238281e+00,-4.778826713562011719e+00,4.831499099731445312e+00,3.617095947265625000e+01,4.653930664062500000e-01,-6.881713867187500000e+00
3.562895059585571289e+01,-9.136273384094238281e+00,-4.778826713562011719e+00,4.831499099731445312e+00,3.115844726562500000e+01,4.653930664062500000e-01,-1.631164550781250000e+01
3.564115047454833984e+01,-7.304709434509277344e+00,-4.987122058868408203e+00,4.831499099731445312e+00,3.115844726562500000e+01,4.905700683593750000e+00,-1.712036132812500000e+01
3.565624976158142090e+01,-7.022193431854247159e+00,-5.281609058380126953e+00,4.599261283874511719e+00,3.086853027343750000e+01,4.905700683593750000e+00,-1.712036132812500000e+01
3.566845440864562988e+01,-7.022193431854247159e+00,-4.987122058868408203e+00,4.599261283874511719e+00,3.160858154296875000e+01,-2.487182617187500000e+00,-1.170349121093750000e+01
3.568426084518432617e+01,-7.022193431854247159e+00,-5.001487255096436435e+00,4.599261283874511719e+00,3.266143798828125000e+01,-9.925842285156250000e+00,-3.311157226562500000e+00
3.569839715957641602e+01,-7.326257228851317471e+00,-4.766855716705322266e+00,3.078943252563477007e+00,4.747009277343750000e+01,-9.925842285156250000e+00,-3.044128417968750000e+00
3.571106147766113281e+01,-7.326257228851317471e+00,-4.876988887786865234e+00,3.078943252563477007e+00,6.036376953125000000e+01,-1.323699951171875000e+01,-3.044128417968750000e+00
3.572210264205932617e+01,-7.884106159210205078e+00,-4.876988887786865234e+00,3.078943252563477007e+00,7.733154296875000000e+01,-1.268005371093750000e+01,-1.091003417968750000e+01
3.574020695686340332e+01,-7.967903137207031250e+00,-4.876988887786865234e+00,4.027047157287598544e+00,7.958984375000000000e+01,-1.268005371093750000e+01,-2.201080322265625000e+01
3.575248527526855469e+01,-7.967903137207031250e+00,-4.872200489044189453e+00,4.850652694702148438e+00,7.958984375000000000e+01,-5.706787109375000000e+00,-2.201080322265625000e+01
3.576482582092285156e+01,-4.438849925994873047e+00,-4.211400508880615234e+00,6.677428245544433594e+00,6.856536865234375000e+01,8.674621582031250000e+00,-1.430511474609375000e+01
3.577934741973876953e+01,-4.438849925994873047e+00,-3.845087766647338867e+00,8.073247909545896661e+00,4.208374023437500000e+01,8.674621582031250000e+00,-1.101684570312500000e+01
3.579153490066528320e+01,-4.438849925994873047e+00,-3.169923067092895508e+00,8.073247909545896661e+00,2.481842041015625000e+01,1.909637451171875000e+01,-1.430511474609375000e+01
3.580617594718933105e+01,-1.022084712982177557e+01,-2.355894327163696289e+00,7.963114738464355469e+00,1.393127441406250000e+01,6.355285644531250000e+00,-1.101684570312500000e+01
3.581831932067871094e+01,-5.425261020660400391e+00,-3.169923067092895508e+00,6.150703907012940341e+00,-3.440856933593750000e+00,6.256103515625000000e-01,8.781433105468750000e+00
3.583408451080322266e+01,-1.020887565612792969e+01,-4.908113479614257812e+00,4.783615112304688388e+00,-1.291656494140625000e+01,6.256103515625000000e-01,8.781433105468750000e+00
3.584861707687377930e+01,-5.425261020660400391e+00,-4.908113479614257812e+00,4.352658748626708984e+00,-1.291656494140625000e+01,-9.338378906250000000e+00,1.007080078125000000e+01
3.586098408699035645e+01,-1.020887565612792969e+01,-5.688622951507567471e+00,4.352658748626708984e+00,2.778625488281250000e+01,1.171112060546875000e+01,1.007080078125000000e+01
3.587574195861816406e+01,-1.015141487121582031e+01,-4.678269863128662109e+00,6.663063049316406250e+00,2.778625488281250000e+01,-1.230621337890625000e+01,1.007080078125000000e+01
3.588755178451538086e+01,-1.015141487121582031e+01,-7.034164428710937500e+00,6.663063049316406250e+00,-1.731872558593750000e+00,3.140258789062500000e+01,-2.475738525390625000e+01
3.590318918228149414e+01,-4.386177539825440341e+00,-4.678269863128662109e+00,5.312733650207520419e+00,-1.731872558593750000e+00,5.264282226562500000e-01,-2.475738525390625000e+01
3.591420030593872070e+01,-4.386177539825440341e+00,-4.522646903991699219e+00,5.312733650207520419e+00,4.951477050781250000e+00,8.163452148437500000e-01,-3.822326660156250000e+00
3.593004202842712402e+01,-7.630320549011230469e+00,-3.562572002410888672e+00,5.312733650207520419e+00,4.951477050781250000e+00,5.264282226562500000e-01,-2.517700195312500000e+00
3.594413304328918457e+01,-7.630320549011230469e+00,-3.562572002410888672e+00,5.204994201660156250e+00,-3.807067871093750000e+00,-2.098083496093750000e+00,-2.517700195312500000e+00
3.595647788047790527e+01,-7.630320549011230469e+00,-4.446032524108886719e+00,5.001487255096436435e+00,-3.807067871093750000e+00,-2.098083496093750000e+00,1.411437988281250000e+00
3.597128772735595703e+01,-7.759607791900634766e+00,-4.647145271301269531e+00,4.788403511047363281e+00,2.906799316406250000e+00,4.806518554687500000e-01,1.411437988281250000e+00
3.598342394828796387e+01,-7.759607791900634766e+00,-4.446032524108886719e+00,4.788403511047363281e+00,2.906799316406250000e+00,2.052307128906250000e+00,-1.106262207031250000e+00
3.599940800666809082e+01,-6.684610843658447266e+00,-3.845087766647338867e+00,4.960785865783691406e+00,4.058837890625000000e+00,4.806518554687500000e-01,-1.106262207031250000e+00
3.601041674613952637e+01,-6.684610843658447266e+00,-3.548206806182861328e+00,5.717353343963622159e+00,6.332397460937500000e-01,1.144409179687500000e+00,-4.119873046875000000e-01
3.602584671974182129e+01,-7.618349552154541016e+00,-3.845087766647338867e+00,4.960785865783691406e+00,-3.341674804687500000e+00,2.136230468750000000e-01,-4.119873046875000000e-01
3.604143905639648438e+01,-7.618349552154541016e+00,-4.371812343597412109e+00,4.714182853698730469e+00,-3.341674804687500000e+00,2.136230468750000000e-01,-4.119873046875000000e-01
3.605284285545349121e+01,-7.015010833740233487e+00,-4.515464305877685547e+00,4.714182853698730469e+00,1.411437988281250000e+00,2.136230468750000000e-01,-1.541137695312500000e+00
3.606762766838073730e+01,-7.015010833740233487e+00,-4.515464305877685547e+00,5.453991413116455078e+00,1.411437988281250000e+00,-2.494812011718750000e+00,7.629394531250000000e-01
3.608033227920532227e+01,-6.794744491577147549e+00,-4.515464305877685547e+00,5.453991413116455078e+00,1.068115234375000000e+00,-2.494812011718750000e+00,7.629394531250000000e-01
3.609461688995361328e+01,-7.824251174926757812e+00,-4.010287761688231534e+00,5.880159378051757812e+00,-2.105712890625000000e+00,-2.494812011718750000e+00,7.629394531250000000e-01
3.610698175430297852e+01,-7.137115001678467685e+00,-5.061342239379882812e+00,4.651933670043945312e+00,-2.105712890625000000e+00,-3.463745117187500000e+00,3.189086914062500000e+00
3.612390327453613281e+01,-7.137115001678467685e+00,-4.010287761688231534e+00,5.880159378051757812e+00,8.850097656250000000e-01,1.594543457031250000e+00,-1.312255859375000000e+00
3.613703155517578125e+01,-7.137115001678467685e+00,-3.303998231887817383e+00,5.322310447692871094e+00,4.615783691406250000e+00,-4.707336425781250000e+00,1.502990722656250000e+00
3.614827108383178711e+01,-6.967126846313477451e+00,-3.303998231887817383e+00,5.322310447692871094e+00,8.850097656250000000e-01,-4.707336425781250000e+00,1.502990722656250000e+00
3.616626143455505371e+01,-7.151480197906494141e+00,-3.758896589279174805e+00,5.322310447692871094e+00,-8.316040039062500000e-01,-4.707336425781250000e+00,1.502990722656250000e+00
3.617760205268859863e+01,-7.649474143981933594e+00,-3.993528366088866743e+00,5.003881454467773438e+00,-1.258850097656250000e+00,-2.044677734375000000e+00,1.419067382812500000e+00
3.619015288352966309e+01,-7.649474143981933594e+00,-4.079719543457031250e+00,5.003881454467773438e+00,-8.316040039062500000e-01,-2.044677734375000000e+00,1.419067382812500000e+00
3.620507335662841797e+01,-7.122749805450440341e+00,-4.106055736541748047e+00,5.003881454467773438e+00,2.822875976562500000e-01,-1.167297363281250000e+00,-2.021789550781250000e+00
3.621743798255920410e+01,-7.122749805450440341e+00,-4.106055736541748047e+00,5.913678169250487393e+00,1.045227050781250000e+00,-2.204895019531250000e+00,-1.907348632812500000e-01
3.623313450813293457e+01,-6.768408298492432529e+00,-4.106055736541748047e+00,5.913678169250487393e+00,2.822875976562500000e-01,-2.204895019531250000e+00,-1.907348632812500000e-01
3.624687504768371582e+01,-7.321468830108642578e+00,-4.666298866271972656e+00,5.657498359680175781e+00,6.866455078125000000e-02,-2.204895019531250000e+00,-1.907348632812500000e-01
3.625953841209411621e+01,-7.321468830108642578e+00,-4.666298866271972656e+00,4.273650169372558594e+00,6.866455078125000000e-02,-8.163452148437500000e-01,2.624511718750000000e+00
3.627157115936279297e+01,-7.321468830108642578e+00,-4.335899353027343750e+00,5.365406036376953125e+00,6.866455078125000000e-02,-8.163452148437500000e-01,-1.907348632812500000e+00
3.628879618644714355e+01,-6.751648902893066406e+00,-3.768473386764526367e+00,5.365406036376953125e+00,5.645751953125000000e-01,-8.163452148437500000e-01,1.731872558593750000e+00
3.630596494674682617e+01,-6.751648902893066406e+00,-3.768473386764526367e+00,5.633556365966797763e+00,-1.724243164062500000e+00,3.265380859375000000e+00,-1.907348632812500000e+00
3.631697916984558105e+01,-7.845798969268798828e+00,-3.885789394378662109e+00,5.633556365966797763e+00,5.645751953125000000e-01,3.265380859375000000e+00,1.731872558593750000e+00
3.633148193359375000e+01,-7.845798969268798828e+00,-4.477157115936278409e+00,4.821922302246093750e+00,-8.239746093750000000e-01,-4.272460937500000000e-01,1.525878906250000000e-02
3.634259676933288574e+01,-7.754819393157958984e+00,-4.477157115936278409e+00,4.821922302246093750e+00,-7.324218750000000000e-01,-4.272460937500000000e-01,1.525878906250000000e-02
3.635626411437988281e+01,-6.418854713439941406e+00,-4.477157115936278409e+00,4.821922302246093750e+00,-7.324218750000000000e-01,-4.272460937500000000e-01,1.525878906250000000e-02
3.637315344810485840e+01,-6.780379295349121094e+00,-4.529829502105712891e+00,5.202600002288818359e+00,-7.324218750000000000e-01,-4.829406738281250000e+00,1.754760742187500000e+00
3.638448905944824219e+01,-6.780379295349121094e+00,-4.594472885131835938e+00,5.202600002288818359e+00,1.045227050781250000e+00,-4.829406738281250000e+00,1.754760742187500000e+00
3.639825439453125000e+01,-7.223306179046630859e+00,-4.929661273956298828e+00,5.202600002288818359e+00,1.045227050781250000e+00,1.525878906250000000e+00,-2.517700195312500000e-01
3.641281652450561523e+01,-7.350199222564697266e+00,-4.929661273956298828e+00,5.904101371765137607e+00,1.045227050781250000e+00,3.860473632812500000e+00,-1.998901367187500000e+00
3.642469573020935059e+01,-7.350199222564697266e+00,-4.173093318939208984e+00,5.106832027435302734e+00,1.838684082031250000e+00,3.860473632812500000e+00,-2.517700195312500000e-01
3.643941688537597656e+01,-7.445967197418212891e+00,-4.173093318939208984e+00,5.106832027435302734e+00,-1.678466796875000000e-01,-2.334594726562500000e+00,4.882812500000000000e-01
3.645235586166381836e+01,-7.841010570526122159e+00,-4.173093318939208984e+00,5.106832027435302734e+00,-1.678466796875000000e-01,-2.334594726562500000e+00,4.882812500000000000e-01
3.646672582626342773e+01,-7.841010570526122159e+00,-4.213794708251953125e+00,4.884171485900878906e+00,-1.678466796875000000e-01,-2.334594726562500000e+00,4.882812500000000000e-01
3.647887659072875977e+01,-6.746860504150391513e+00,-4.003105163574218750e+00,6.124367713928222656e+00,-6.332397460937500000e-01,-2.067565917968750000e+00,-8.010864257812500000e-01
3.649356722831726074e+01,-6.746860504150391513e+00,-4.003105163574218750e+00,6.200982093811035156e+00,9.841918945312500000e-01,1.579284667968750000e+00,-8.010864257812500000e-01
3.650586318969726562e+01,-6.746860504150391513e+00,-4.003105163574218750e+00,6.200982093811035156e+00,-6.332397460937500000e-01,2.555847167968750000e+00,-8.010864257812500000e-01
3.652088737487792969e+01,-7.831433773040771484e+00,-4.240131378173828125e+00,5.724535942077637607e+00,-9.155273437500000000e-02,2.555847167968750000e+00,1.106262207031250000e+00
3.653552174568176270e+01,-7.776367187500000000e+00,-4.381389141082763672e+00,5.133168220520020419e+00,-9.155273437500000000e-02,1.098632812500000000e+00,1.106262207031250000e+00
3.654753017425537109e+01,-7.776367187500000000e+00,-4.240131378173828125e+00,5.324704647064208984e+00,-9.155273437500000000e-02,1.098632812500000000e+00,-3.128051757812500000e-01
3.656305170059204102e+01,-7.264008045196532315e+00,-4.230554103851318359e+00,5.324704647064208984e+00,2.227783203125000000e+00,-1.075744628906250000e+00,-3.128051757812500000e-01
3.657474112510681152e+01,-6.799532890319824219e+00,-4.230554103851318359e+00,5.324704647064208984e+00,6.866455078125000000e-01,-3.303527832031250000e+00,2.761840820312500000e+00
3.658884048461914062e+01,-6.959944248199462891e+00,-3.890577793121337891e+00,5.676651954650878906e+00,6.866455078125000000e-01,-3.303527832031250000e+00,2.761840820312500000e+00
3.660346341133117676e+01,-6.799532890319824219e+00,-4.465186119079589844e+00,5.142745018005371094e+00,6.866455078125000000e-01,4.974365234375000000e+00,4.806518554687500000e-01
3.661720442771911621e+01,-6.959944248199462891e+00,-4.465186119079589844e+00,5.360617637634277344e+00,1.693725585937500000e+00,4.974365234375000000e+00,4.806518554687500000e-01
3.663260769844055176e+01,-7.467514991760253906e+00,-4.465186119079589844e+00,5.360617637634277344e+00,1.693725585937500000e+00,2.777099609375000000e+00,4.806518554687500000e-01
3.664387202262878418e+01,-7.467514991760253906e+00,-4.740519523620605469e+00,5.360617637634277344e+00,-1.365661621093750000e+00,4.425048828125000000e-01,1.586914062500000000e+00
3.665838456153869629e+01,-7.237671852111816406e+00,-4.740519523620605469e+00,5.511452198028564453e+00,-1.365661621093750000e+00,4.425048828125000000e-01,-1.098632812500000000e+00
3.667130589485168457e+01,-7.237671852111816406e+00,-4.740519523620605469e+00,5.511452198028564453e+00,2.296447753906250000e+00,-5.035400390625000000e-01,-8.010864257812500000e-01
3.668593978881835938e+01,-7.237671852111816406e+00,-4.812345504760742188e+00,5.511452198028564453e+00,2.296447753906250000e+00,-5.035400390625000000e-01,-8.010864257812500000e-01
3.670055103302001953e+01,-6.342240333557128906e+00,-4.541800498962402344e+00,5.612008571624755859e+00,3.890991210937500000e-01,-5.035400390625000000e-01,-8.010864257812500000e-01
3.671334815025329590e+01,-6.342240333557128906e+00,-4.541800498962402344e+00,5.451597213745117188e+00,3.890991210937500000e-01,1.358032226562500000e+00,-7.934570312500000000e-01
3.672732377052307129e+01,-7.062894821166992188e+00,-4.103661537170410156e+00,5.451597213745117188e+00,3.890991210937500000e-01,1.358032226562500000e+00,-1.136779785156250000e+00
3.673993945121765137e+01,-7.062894821166992188e+00,-4.003105163574218750e+00,5.147533416748046875e+00,3.021240234375000000e+00,1.289367675781250000e+00,1.586914062500000000e+00
3.675710701942443848e+01,-7.062894821166992188e+00,-3.924096584320068803e+00,5.147533416748046875e+00,-4.272460937500000000e-01,1.289367675781250000e+00,-1.708984375000000000e+00
3.677009725570678711e+01,-7.900865554809570312e+00,-3.919308185577392578e+00,5.513846397399902344e+00,1.068115234375000000e-01,1.289367675781250000e+00,1.831054687500000000e-01
3.678148102760314941e+01,-7.900865554809570312e+00,-3.924096584320068803e+00,5.513846397399902344e+00,-4.272460937500000000e-01,-2.960205078125000000e+00,1.831054687500000000e-01
3.679928040504455566e+01,-6.900089263916016513e+00,-4.091690540313721591e+00,5.513846397399902344e+00,-9.536743164062500000e-01,-2.960205078125000000e+00,1.831054687500000000e-01
3.681023359298706055e+01,-6.900089263916016513e+00,-4.388571739196776456e+00,5.669469356536865234e+00,-9.536743164062500000e-01,-2.288818359375000000e+00,1.869201660156250000e+00
3.682344913482666016e+01,-6.900089263916016513e+00,-4.261679172515868252e+00,5.669469356536865234e+00,-3.051757812500000000e+00,1.319885253906250000e+00,-1.930236816406250000e+00
3.684081220626831055e+01,-7.436390399932861328e+00,-4.261679172515868252e+00,5.647921562194824219e+00,-8.544921875000000000e-01,1.319885253906250000e+00,3.814697265625000000e-02
3.685203766822814941e+01,-7.436390399932861328e+00,-4.261679172515868252e+00,4.841075897216796875e+00,-8.544921875000000000e-01,1.319885253906250000e+00,3.814697265625000000e-02
3.686607527732849121e+01,-7.608772754669188565e+00,-4.067748546600341797e+00,5.573701381683349609e+00,-3.204345703125000000e-01,-2.975463867187500000e+00,3.814697265625000000e-02
3.687993764877319336e+01,-7.608772754669188565e+00,-3.790021181106567827e+00,5.573701381683349609e+00,-3.204345703125000000e-01,-2.975463867187500000e+00,-2.975463867187500000e-01
3.689218711853027344e+01,-7.692569732666016513e+00,-3.790021181106567827e+00,5.573701381683349609e+00,-3.204345703125000000e-01,-8.010864257812500000e-01,-2.975463867187500000e-01
3.690801048278808594e+01,-6.926425457000732422e+00,-4.046200752258301669e+00,4.656722068786621094e+00,1.556396484375000000e+00,-8.010864257812500000e-01,3.555297851562500000e+00
3.692222547531127930e+01,-7.283161640167236328e+00,-4.046200752258301669e+00,4.656722068786621094e+00,1.556396484375000000e+00,-8.010864257812500000e-01,3.555297851562500000e+00
3.693472743034362793e+01,-6.926425457000732422e+00,-5.013458251953125000e+00,4.599261283874511719e+00,2.433776855468750000e+00,-1.770019531250000000e+00,3.555297851562500000e+00
3.694682145118713379e+01,-7.283161640167236328e+00,-4.651933670043945312e+00,5.451597213745117188e+00,-3.570556640625000000e+00,5.523681640625000000e+00,-3.593444824218750000e+00
3.696404433250427246e+01,-7.491456985473632812e+00,-4.651933670043945312e+00,5.451597213745117188e+00,3.257751464843750000e+00,-1.396179199218750000e+00,1.243591308593750000e+00
3.697505140304565430e+01,-7.491456985473632812e+00,-4.623203277587891513e+00,5.451597213745117188e+00,-1.220703125000000000e-01,2.365112304687500000e-01,-2.471923828125000000e+00
3.698880004882812500e+01,-7.524975776672362393e+00,-4.422090530395507812e+00,5.468356609344481534e+00,1.411437988281250000e+00,-1.396179199218750000e+00,1.243591308593750000e+00
3.700599813461303711e+01,-7.304709434509277344e+00,-4.019864559173583984e+00,5.207388401031494141e+00,1.411437988281250000e+00,-3.005981445312500000e+00,1.152038574218750000e+00
3.701709914207458496e+01,-7.304709434509277344e+00,-4.019864559173583984e+00,5.511452198028564453e+00,1.411437988281250000e+00,-3.005981445312500000e+00,1.152038574218750000e+00
3.703020501136779785e+01,-7.096413612365722656e+00,-4.276044368743896484e+00,5.207388401031494141e+00,1.472473144531250000e+00,-1.556396484375000000e+00,1.152038574218750000e+00
3.704256153106689453e+01,-7.096413612365722656e+00,-4.276044368743896484e+00,5.178658008575440341e+00,-2.571105957031250000e+00,1.525878906250000000e+00,-3.059387207031250000e+00
3.705735135078430176e+01,-7.510610580444335938e+00,-4.307168960571288174e+00,5.178658008575440341e+00,1.319885253906250000e+00,-1.556396484375000000e+00,2.296447753906250000e+00
3.707103323936462402e+01,-7.510610580444335938e+00,-4.304774761199951172e+00,5.178658008575440341e+00,-2.571105957031250000e+00,1.525878906250000000e+00,-2.883911132812500000e+00
3.708467936515808105e+01,-7.316680431365967685e+00,-4.307168960571288174e+00,4.908113479614257812e+00,1.319885253906250000e+00,9.918212890625000000e-01,2.296447753906250000e+00
3.709955549240112305e+01,-7.316680431365967685e+00,-4.304774761199951172e+00,4.908113479614257812e+00,-2.304077148437500000e+00,9.918212890625000000e-01,-2.883911132812500000e+00
3.711184048652648926e+01,-7.316680431365967685e+00,-4.659116268157958984e+00,5.272032260894775391e+00,4.180908203125000000e+00,-2.441406250000000000e-01,2.708435058593750000e+00
3.712686944007873535e+01,-7.003039836883544922e+00,-3.976768970489501953e+00,5.327098846435546875e+00,-2.304077148437500000e+00,-2.441406250000000000e-01,-4.035949707031250000e+00
3.713846850395202637e+01,-7.003039836883544922e+00,-4.371812343597412109e+00,5.327098846435546875e+00,3.501892089843750000e+00,-1.045227050781250000e+00,3.501892089843750000e+00
3.715428042411804199e+01,-7.012616634368896484e+00,-4.371812343597412109e+00,4.953603267669677734e+00,-2.098083496093750000e+00,-1.045227050781250000e+00,-9.002685546875000000e-01
3.716874003410339355e+01,-7.012616634368896484e+00,-4.371812343597412109e+00,4.953603267669677734e+00,2.883911132812500000e+00,-1.045227050781250000e+00,1.754760742187500000e+00
3.718145298957824707e+01,-7.012616634368896484e+00,-3.921702384948730469e+00,5.987898349761962891e+00,-1.548767089843750000e+00,-4.959106445312500000e-01,-9.002685546875000000e-01
3.719632530212402344e+01,-7.311892032623291016e+00,-3.921702384948730469e+00,5.987898349761962891e+00,-1.548767089843750000e+00,-4.959106445312500000e-01,9.155273437500000000e-01
3.720771789550781250e+01,-7.311892032623291016e+00,-4.153939723968506748e+00,5.104437828063964844e+00,-1.548767089843750000e+00,-2.777099609375000000e+00,3.433227539062500000e-01
3.722258996963500977e+01,-7.311892032623291016e+00,-4.261679172515868252e+00,4.826710700988769531e+00,-9.841918945312500000e-01,-2.777099609375000000e+00,3.433227539062500000e-01
3.723728895187377930e+01,-7.055712223052978516e+00,-4.261679172515868252e+00,4.826710700988769531e+00,2.166748046875000000e+00,-1.762390136718750000e+00,-1.525878906250000000e+00
3.724954700469970703e+01,-7.055712223052978516e+00,-4.261679172515868252e+00,5.164292812347412109e+00,2.166748046875000000e+00,-8.468627929687500000e-01,-1.525878906250000000e+00
3.726535964012145996e+01,-7.055712223052978516e+00,-4.376600742340087891e+00,5.667075157165527344e+00,2.166748046875000000e+00,2.441406250000000000e-01,1.907348632812500000e-01
3.727678012847900391e+01,-7.620743751525878906e+00,-4.376600742340087891e+00,5.164292812347412109e+00,-4.730224609375000000e-01,4.043579101562500000e-01,1.907348632812500000e-01
3.729100584983825684e+01,-7.620743751525878906e+00,-4.376600742340087891e+00,5.540182590484619141e+00,1.785278320312500000e+00,4.043579101562500000e-01,-6.561279296875000000e-01
3.730741238594055176e+01,-6.995857238769531250e+00,-4.446032524108886719e+00,5.284003257751464844e+00,1.449584960937500000e+00,1.617431640625000000e+00,-1.312255859375000000e+00
3.731851315498352051e+01,-6.995857238769531250e+00,-4.446032524108886719e+00,5.540182590484619141e+00,1.785278320312500000e+00,1.617431640625000000e+00,-6.561279296875000000e-01
3.733333659172058105e+01,-6.995857238769531250e+00,-4.139574527740479404e+00,5.358223438262940341e+00,1.449584960937500000e+00,1.617431640625000000e+00,-1.312255859375000000e+00
3.734632158279418945e+01,-6.907271862030028409e+00,-4.053383350372314453e+00,5.358223438262940341e+00,2.441406250000000000e-01,-6.637573242187500000e-01,0.000000000000000000e+00
3.736134505271911621e+01,-6.907271862030028409e+00,-4.139574527740479404e+00,5.264849662780761719e+00,-7.858276367187500000e-01,7.324218750000000000e-01,2.593994140625000000e-01
3.737274909019470215e+01,-7.278373241424559659e+00,-4.161122322082520419e+00,5.264849662780761719e+00,-4.501342773437500000e-01,7.324218750000000000e-01,2.593994140625000000e-01
3.738861155509948730e+01,-7.326257228851317471e+00,-4.161122322082520419e+00,5.317522048950195312e+00,-4.501342773437500000e-01,1.564025878906250000e+00,-2.288818359375000000e-02
3.739978718757629395e+01,-7.278373241424559659e+00,-4.484339714050292969e+00,5.317522048950195312e+00,-4.425048828125000000e-01,1.564025878906250000e+00,-2.288818359375000000e-02
3.741508293151855469e+01,-7.326257228851317471e+00,-4.216188907623291016e+00,5.592854976654052734e+00,-4.425048828125000000e-01,7.705688476562500000e-01,-2.288818359375000000e-02
3.743204712867736816e+01,-7.242460250854492188e+00,-4.419696331024169922e+00,5.219359397888183594e+00,3.585815429687500000e-01,2.975463867187500000e-01,7.324218750000000000e-01
3.744384074211120605e+01,-7.374141216278076172e+00,-4.216188907623291016e+00,5.439626216888427734e+00,3.585815429687500000e-01,1.373291015625000000e-01,2.059936523437500000e-01
3.745697665214538574e+01,-7.220911979675292969e+00,-4.419696331024169922e+00,5.166687011718750000e+00,4.882812500000000000e-01,1.373291015625000000e-01,2.059936523437500000e-01
3.747099542617797852e+01,-7.343016624450683594e+00,-4.151545524597167969e+00,5.439626216888427734e+00,4.882812500000000000e-01,1.373291015625000000e-01,-1.525878906250000000e-01
3.748366594314575195e+01,-7.220911979675292969e+00,-4.170699119567871094e+00,5.269638061523437500e+00,1.228332519531250000e+00,8.392333984375000000e-02,-1.525878906250000000e-01
3.749530792236328125e+01,-7.343016624450683594e+00,-4.170699119567871094e+00,5.365406036376953125e+00,-3.280639648437500000e-01,3.356933593750000000e-01,-6.561279296875000000e-01
3.751310634613037109e+01,-7.264008045196532315e+00,-4.194641113281250000e+00,5.365406036376953125e+00,-7.629394531250000000e-03,2.746582031250000000e-01,-5.111694335937500000e-01
3.752632975578308105e+01,-7.264008045196532315e+00,-4.235342502593993252e+00,5.365406036376953125e+00,-7.629394531250000000e-03,2.746582031250000000e-01,-5.111694335937500000e-01
3.753736138343811035e+01,-7.134720802307128906e+00,-4.235342502593993252e+00,5.379771232604980469e+00,1.068115234375000000e-01,-4.196166992187500000e-01,-1.220703125000000000e-01
3.755525183677673340e+01,-7.134720802307128906e+00,-4.271255970001221591e+00,5.386953830718994141e+00,1.068115234375000000e-01,-4.577636718750000000e-01,-1.220703125000000000e-01
3.756698250770568848e+01,-7.158662796020507812e+00,-4.232948303222656250e+00,5.386953830718994141e+00,1.068115234375000000e-01,-4.577636718750000000e-01,-5.035400390625000000e-01
3.758090806007385254e+01,-7.158662796020507812e+00,-4.338293552398681641e+00,5.307945251464843750e+00,2.670288085937500000e-01,-4.577636718750000000e-01,-5.035400390625000000e-01
3.759430909156799316e+01,-7.156268596649169922e+00,-4.158728122711181641e+00,5.307945251464843750e+00,4.348754882812500000e-01,-1.525878906250000000e-02,-5.950927734375000000e-01
3.760679030418395996e+01,-7.156268596649169922e+00,-4.086902141571044922e+00,5.511452198028564453e+00,9.689331054687500000e-01,-1.525878906250000000e-02,-4.577636718750000000e-02
3.762163305282592773e+01,-7.168239593505858487e+00,-4.086902141571044922e+00,5.511452198028564453e+00,4.348754882812500000e-01,1.251220703125000000e+00,-7.705688476562500000e-01
3.763592529296875000e+01,-7.168239593505858487e+00,-4.302380561828613281e+00,5.269638061523437500e+00,9.536743164062500000e-01,-2.059936523437500000e-01,5.340576171875000000e-02
3.764900851249694824e+01,-7.223306179046630859e+00,-4.302380561828613281e+00,5.267243862152099609e+00,8.544921875000000000e-01,-2.059936523437500000e-01,-4.806518554687500000e-01
3.766039919853210449e+01,-7.223306179046630859e+00,-4.139574527740479404e+00,5.267243862152099609e+00,8.544921875000000000e-01,-3.433227539062500000e-01,-4.806518554687500000e-01
3.767564630508422852e+01,-6.993463039398192471e+00,-4.139574527740479404e+00,5.370194435119628906e+00,-1.449584960937500000e-01,-3.433227539062500000e-01,-4.806518554687500000e-01
3.768741536140441895e+01,-6.993463039398192471e+00,-4.299986362457274502e+00,5.370194435119628906e+00,-1.831054687500000000e-01,-2.059936523437500000e-01,3.051757812500000000e-02
3.770339012145996094e+01,-7.048529624938964844e+00,-4.299986362457274502e+00,5.370194435119628906e+00,-1.831054687500000000e-01,3.051757812500000000e-01,3.051757812500000000e-02
3.771780514717102051e+01,-7.086836814880371094e+00,-4.383783340454102451e+00,5.068524837493896484e+00,3.662109375000000000e-01,3.051757812500000000e-01,3.051757812500000000e-02
3.773006439208984375e+01,-7.132326602935791016e+00,-4.201823711395263672e+00,5.494692802429199219e+00,3.662109375000000000e-01,3.051757812500000000e-01,-5.340576171875000000e-01
3.774486589431762695e+01,-7.125144004821777344e+00,-4.201823711395263672e+00,5.319916248321533203e+00,1.091003417968750000e+00,4.272460937500000000e-01,1.296997070312500000e-01
3.775716352462768555e+01,-7.132326602935791016e+00,-4.089296340942383701e+00,5.355829238891601562e+00,2.288818359375000000e-01,6.484985351562500000e-01,-9.155273437500000000e-02
3.777150869369506836e+01,-7.319074630737304688e+00,-4.089296340942383701e+00,5.319916248321533203e+00,9.002685546875000000e-01,4.272460937500000000e-01,1.296997070312500000e-01
3.778645229339599609e+01,-7.319074630737304688e+00,-4.153939723968506748e+00,5.355829238891601562e+00,8.392333984375000000e-02,6.484985351562500000e-01,-9.155273437500000000e-02
3.779789042472839355e+01,-7.271190643310547763e+00,-4.264073371887207031e+00,5.604825973510742188e+00,8.392333984375000000e-02,1.335144042968750000e+00,-1.106262207031250000e+00
3.781461977958679199e+01,-7.091625213623047763e+00,-4.290409564971923828e+00,5.604825973510742188e+00,8.392333984375000000e-02,1.335144042968750000e+00,-1.106262207031250000e+00
3.782561802864074707e+01,-6.964732646942138672e+00,-4.290409564971923828e+00,5.073313236236572266e+00,1.525878906250000000e-02,1.136779785156250000e+00,-1.266479492187500000e+00
3.784270262718200684e+01,-6.964732646942138672e+00,-4.290409564971923828e+00,5.073313236236572266e+00,9.231567382812500000e-01,-2.441406250000000000e-01,-1.754760742187500000e-01
3.785635399818420410e+01,-6.962338447570800781e+00,-4.273650169372558594e+00,5.073313236236572266e+00,9.231567382812500000e-01,-3.585815429687500000e-01,-1.754760742187500000e-01
3.786734509468078613e+01,-7.223306179046630859e+00,-4.232948303222656250e+00,5.544970989227294922e+00,9.231567382812500000e-01,-3.585815429687500000e-01,-1.754760742187500000e-01
3.788284802436828613e+01,-7.402871608734130859e+00,-4.232948303222656250e+00,5.489904403686523438e+00,1.136779785156250000e+00,-8.850097656250000000e-01,2.441406250000000000e-01
3.789525198936462402e+01,-7.402871608734130859e+00,-4.204217910766602451e+00,5.489904403686523438e+00,8.392333984375000000e-01,4.119873046875000000e-01,-5.722045898437500000e-01
3.790944504737854004e+01,-7.228094577789307529e+00,-4.170699119567871094e+00,5.489904403686523438e+00,8.392333984375000000e-01,4.119873046875000000e-01,-5.722045898437500000e-01
3.792441797256469727e+01,-7.228094577789307529e+00,-4.010287761688231534e+00,5.250484466552733487e+00,4.653930664062500000e-01,4.119873046875000000e-01,-5.722045898437500000e-01
3.793735194206237793e+01,-7.228094577789307529e+00,-4.010287761688231534e+00,5.250484466552733487e+00,-6.179809570312500000e-01,5.035400390625000000e-01,-4.501342773437500000e-01
3.795232295989990234e+01,-7.237671852111816406e+00,-4.328716754913330078e+00,5.250484466552733487e+00,4.653930664062500000e-01,-3.814697265625000000e-02,-1.831054687500000000e-01
3.796300697326660156e+01,-7.153874397277832031e+00,-4.355052947998046875e+00,5.303156852722167969e+00,6.179809570312500000e-01,-3.814697265625000000e-02,-4.501342773437500000e-01
3.798076796531677246e+01,-7.153874397277832031e+00,-4.328716754913330078e+00,5.334281444549560547e+00,6.179809570312500000e-01,-3.814697265625000000e-02,-7.400512695312500000e-01
3.799313449859619141e+01,-7.153874397277832031e+00,-4.161122322082520419e+00,5.334281444549560547e+00,7.019042968750000000e-01,-2.212524414062500000e-01,-7.400512695312500000e-01
3.800515341758728027e+01,-7.134720802307128906e+00,-4.161122322082520419e+00,5.334281444549560547e+00,6.790161132812500000e-01,1.525878906250000000e-02,-6.103515625000000000e-02
3.802286028861999512e+01,-7.156268596649169922e+00,-4.206612110137940341e+00,5.398924827575683594e+00,6.790161132812500000e-01,1.525878906250000000e-02,-6.103515625000000000e-02
3.803362751007080078e+01,-7.156268596649169922e+00,-4.206612110137940341e+00,5.406107425689697266e+00,6.790161132812500000e-01,1.525878906250000000e-02,-6.103515625000000000e-02
3.804803371429443359e+01,-7.297526836395263672e+00,-4.158728122711181641e+00,5.406107425689697266e+00,-2.288818359375000000e-02,6.408691406250000000e-01,-8.316040039062500000e-01
3.806196975708007812e+01,-7.297526836395263672e+00,-4.122815132141113281e+00,5.327098846435546875e+00,5.340576171875000000e-02,-3.814697265625000000e-02,-3.051757812500000000e-01
3.807507872581481934e+01,-7.079654216766357422e+00,-4.158728122711181641e+00,5.252878665924072266e+00,5.340576171875000000e-02,8.392333984375000000e-02,-3.051757812500000000e-01
3.809001588821411133e+01,-7.079654216766357422e+00,-4.264073371887207031e+00,5.327098846435546875e+00,5.340576171875000000e-02,8.392333984375000000e-02,-3.051757812500000000e-01
3.810429048538208008e+01,-7.175422191619872159e+00,-4.264073371887207031e+00,5.284003257751464844e+00,4.653930664062500000e-01,8.392333984375000000e-02,-5.722045898437500000e-01
3.811642909049987793e+01,-7.218517780303955078e+00,-4.264073371887207031e+00,5.284003257751464844e+00,4.653930664062500000e-01,-1.525878906250000000e-01,-5.722045898437500000e-01
3.812862205505371094e+01,-7.218517780303955078e+00,-4.256890773773193359e+00,5.231330394744873047e+00,4.653930664062500000e-01,-1.525878906250000000e-01,-5.722045898437500000e-01
3.814603471755981445e+01,-7.182604789733887607e+00,-4.228159904479980469e+00,5.231330394744873047e+00,6.332397460937500000e-01,-1.525878906250000000e-01,-1.373291015625000000e-01
3.815801453590393066e+01,-7.141903400421142578e+00,-4.163516521453856534e+00,5.250484466552733487e+00,5.264282226562500000e-01,-6.866455078125000000e-02,3.051757812500000000e-02
3.817103505134582520e+01,-7.141903400421142578e+00,-4.163516521453856534e+00,5.367800235748291016e+00,5.264282226562500000e-01,-6.866455078125000000e-02,3.051757812500000000e-02
