# elapsed time, f3_acc_x, f3_acc_y, f3_acc_z, f3_gyro_x, f3_gyro_y, f3_gyro_z
7.141264486312866211e+01,1.046266078948974609e+00,-9.380481719970703125e+00,2.873042106628417969e+00,-3.715515136718750000e+00,-3.128051757812500000e-01,7.171630859375000000e-01
7.142452001571655273e+01,1.113303780555725098e+00,-9.380481719970703125e+00,2.873042106628417969e+00,-3.700256347656250000e+00,-2.593994140625000000e-01,7.171630859375000000e-01
7.144006085395812988e+01,1.125274777412414551e+00,-9.380481719970703125e+00,2.873042106628417969e+00,-3.700256347656250000e+00,-3.509521484375000000e-01,8.010864257812500000e-01
7.145462894439697266e+01,1.125274777412414551e+00,-9.375693321228027344e+00,2.789244890213012695e+00,-3.837585449218750000e+00,-2.593994140625000000e-01,8.010864257812500000e-01
7.146719408035278320e+01,1.084573388099670410e+00,-9.375693321228027344e+00,2.868253707885741743e+00,-3.852844238281250000e+00,-1.678466796875000000e-01,8.468627929687500000e-01
7.148171234130859375e+01,1.084573388099670410e+00,-9.339780807495117188e+00,2.789244890213012695e+00,-3.837585449218750000e+00,-1.068115234375000000e-01,8.239746093750000000e-01
7.149709677696228027e+01,1.106121182441711426e+00,-9.339780807495117188e+00,2.772485494613647461e+00,-3.852844238281250000e+00,-1.068115234375000000e-01,8.697509765625000000e-01
7.150909495353698730e+01,1.106121182441711426e+00,-9.425971984863279474e+00,2.772485494613647461e+00,-3.829956054687500000e+00,-1.296997070312500000e-01,8.697509765625000000e-01
7.152462148666381836e+01,1.098938584327697754e+00,-9.425971984863279474e+00,2.870647907257080078e+00,-3.852844238281250000e+00,-2.593994140625000000e-01,8.697509765625000000e-01
7.183897709846496582e+01,1.046266078948974609e+00,-9.370904922485351562e+00,2.875436305999756303e+00,-3.829956054687500000e+00,-2.593994140625000000e-01,6.790161132812500000e-01
7.185076165199279785e+01,1.046266078948974609e+00,-9.265560150146484375e+00,2.875436305999756303e+00,-3.868103027343750000e+00,-2.593994140625000000e-01,6.790161132812500000e-01
7.186652326583862305e+01,1.089361786842346191e+00,-9.265560150146484375e+00,2.882618904113769087e+00,-3.890991210937500000e+00,6.866455078125000000e-02,4.653930664062500000e-01
7.187734246253967285e+01,1.089361786842346191e+00,-9.265560150146484375e+00,2.767697095870972124e+00,-3.890991210937500000e+00,6.866455078125000000e-02,5.111694335937500000e-01
7.189303779602050781e+01,1.058237075805664062e+00,-9.229647636413574219e+00,2.882618904113769087e+00,-3.890991210937500000e+00,-1.373291015625000000e-01,4.653930664062500000e-01
7.190548610687255859e+01,1.058237075805664062e+00,-9.229647636413574219e+00,2.858676671981811523e+00,-3.822326660156250000e+00,-1.373291015625000000e-01,5.111694335937500000e-01
7.192004466056823730e+01,1.019929885864257812e+00,-9.236829757690429688e+00,2.892195701599121094e+00,-3.944396972656250000e+00,-1.373291015625000000e-01,4.196166992187500000e-01
7.193395853042602539e+01,9.983820915222167969e-01,-9.241618156433103692e+00,2.858676671981811523e+00,-3.944396972656250000e+00,6.103515625000000000e-02,-1.525878906250000000e-01
7.194743800163269043e+01,9.983820915222167969e-01,-9.287108421325683594e+00,2.908955097198486328e+00,-4.447937011718750000e+00,4.577636718750000000e-02,-1.525878906250000000e-01
7.196182775497436523e+01,1.139639973640442117e+00,-9.291896820068359375e+00,2.861070871353149414e+00,-4.447937011718750000e+00,4.577636718750000000e-02,2.288818359375000000e-01
7.197373270988464355e+01,1.139639973640442117e+00,-9.291896820068359375e+00,2.894589900970458984e+00,-3.799438476562500000e+00,1.525878906250000000e-02,2.288818359375000000e-01
7.199130010604858398e+01,1.122880578041076882e+00,-9.270348548889160156e+00,2.861070871353149414e+00,-3.799438476562500000e+00,-1.144409179687500000e-01,6.179809570312500000e-01
7.200319242477416992e+01,1.122880578041076882e+00,-9.251194953918457031e+00,2.889801502227783203e+00,-4.249572753906250000e+00,1.525878906250000000e-02,3.967285156250000000e-01
7.201500725746154785e+01,1.247379064559936301e+00,-9.270348548889160156e+00,2.815581083297729048e+00,-4.249572753906250000e+00,-1.144409179687500000e-01,3.967285156250000000e-01
7.203291177749633789e+01,1.247379064559936301e+00,-9.279925346374511719e+00,2.815581083297729048e+00,-3.807067871093750000e+00,-1.296997070312500000e-01,2.441406250000000000e-01
7.204370117187500000e+01,1.063025593757629395e+00,-9.279925346374511719e+00,2.815581083297729048e+00,-3.684997558593750000e+00,-3.509521484375000000e-01,2.441406250000000000e-01
7.205785918235778809e+01,1.027112483978271706e+00,-9.279925346374511719e+00,2.889801502227783203e+00,-3.684997558593750000e+00,-3.509521484375000000e-01,2.441406250000000000e-01
7.207498884201049805e+01,1.017535686492920144e+00,-9.279925346374511719e+00,2.889801502227783203e+00,-3.952026367187500000e+00,2.975463867187500000e-01,5.569458007812500000e-01
7.208589506149291992e+01,1.015141487121582031e+00,-9.320627212524414062e+00,2.868253707885741743e+00,-3.952026367187500000e+00,2.975463867187500000e-01,5.569458007812500000e-01
7.210021448135375977e+01,9.409212470054626465e-01,-9.265560150146484375e+00,2.856282472610473633e+00,-3.898620605468750000e+00,2.746582031250000000e-01,5.569458007812500000e-01
7.211406350135803223e+01,1.010353088378906250e+00,-9.265560150146484375e+00,2.817975282669067383e+00,-3.898620605468750000e+00,2.746582031250000000e-01,4.577636718750000000e-01
7.212741065025329590e+01,8.619126081466674805e-01,-9.018958091735839844e+00,2.760514497756958008e+00,-3.784179687500000000e+00,5.798339843750000000e-01,3.433227539062500000e-01
7.213814258575439453e+01,1.010353088378906250e+00,-9.018958091735839844e+00,2.760514497756958008e+00,-3.982543945312500000e+00,5.798339843750000000e-01,-1.449584960937500000e-01
7.215660858154296875e+01,1.106121182441711426e+00,-9.066842079162597656e+00,2.664746522903442383e+00,-4.631042480468750000e+00,5.798339843750000000e-01,-1.831054687500000000e-01
7.216890430450439453e+01,1.120486378669738770e+00,-9.167398452758787286e+00,2.695871114730834961e+00,-4.631042480468750000e+00,-4.043579101562500000e-01,-3.814697265625000000e-01
7.218107652664184570e+01,1.244984865188598633e+00,-9.167398452758787286e+00,2.664746522903442383e+00,-4.776000976562500000e+00,3.814697265625000000e-01,-5.340576171875000000e-01
7.219560003280639648e+01,1.221042871475219505e+00,-9.167398452758787286e+00,2.695871114730834961e+00,-5.287170410156250000e+00,3.814697265625000000e-01,-3.814697265625000000e-01
7.220749258995056152e+01,1.285686254501342773e+00,-9.488221168518066406e+00,3.021482467651366743e+00,-5.287170410156250000e+00,3.814697265625000000e-01,-5.340576171875000000e-01
7.222328567504882812e+01,1.221042871475219505e+00,-9.557653427124023438e+00,3.021482467651366743e+00,-3.150939941406250000e+00,1.373291015625000000e-01,-6.866455078125000000e-02
7.223763966560363770e+01,9.433154463768004261e-01,-9.488221168518066406e+00,2.918531894683837891e+00,-3.028869628906250000e+00,1.373291015625000000e-01,-6.866455078125000000e-02
7.224982714653015137e+01,9.433154463768004261e-01,-8.999804496765136719e+00,2.873042106628417969e+00,-3.150939941406250000e+00,4.043579101562500000e-01,-6.866455078125000000e-02
7.226441264152526855e+01,9.720458984375000000e-01,-8.971073150634765625e+00,2.873042106628417969e+00,-4.150390625000000000e+00,4.653930664062500000e-01,-1.296997070312500000e+00
7.227642679214477539e+01,9.720458984375000000e-01,-8.999804496765136719e+00,2.873042106628417969e+00,-4.798889160156250000e+00,4.730224609375000000e-01,-1.609802246093750000e+00
7.229236006736755371e+01,9.720458984375000000e-01,-9.339780807495117188e+00,3.122039079666137695e+00,-5.340576171875000000e+00,4.730224609375000000e-01,-1.609802246093750000e+00
7.230748128890991211e+01,9.409212470054626465e-01,-9.569623947143556464e+00,3.122039079666137695e+00,-5.340576171875000000e+00,4.730224609375000000e-01,-1.129150390625000000e+00
7.231853771209716797e+01,8.092401623725891113e-01,-9.569623947143556464e+00,2.971204280853271484e+00,-3.623962402343750000e+00,1.129150390625000000e+00,-1.098632812500000000e+00
7.233389902114868164e+01,8.092401623725891113e-01,-9.284713745117187500e+00,2.853888273239136186e+00,-3.120422363281250000e+00,1.007080078125000000e+00,-1.602172851562500000e-01
7.234599399566650391e+01,8.738836050033569336e-01,-8.920795440673828125e+00,2.971204280853271484e+00,-3.623962402343750000e+00,1.007080078125000000e+00,-1.602172851562500000e-01
7.236087894439697266e+01,1.034295082092285156e+00,-8.920795440673828125e+00,2.930502891540527788e+00,-3.318786621093750000e+00,-3.768920898437500000e+00,2.822875976562500000e-01
7.237638306617736816e+01,1.434126853942870872e+00,-9.447519302368164062e+00,2.930502891540527788e+00,-3.318786621093750000e+00,-3.768920898437500000e+00,2.037048339843750000e+00
7.239566230773925781e+01,1.632845520973205566e+00,-9.447519302368164062e+00,2.930502891540527788e+00,-3.318786621093750000e+00,-2.441406250000000000e+00,2.037048339843750000e+00
7.240637159347534180e+01,1.434126853942870872e+00,-9.212887763977050781e+00,3.806780576705932617e+00,-4.417419433593750000e+00,-9.002685546875000000e-01,5.264282226562500000e+00
7.241758656501770020e+01,5.985504388809204102e-01,-9.212887763977050781e+00,3.806780576705932617e+00,-5.378723144531250000e+00,-9.002685546875000000e-01,5.264282226562500000e+00
7.242948865890502930e+01,5.985504388809204102e-01,-9.155426979064939630e+00,2.559401512145996094e+00,-5.378723144531250000e+00,-2.021789550781250000e+00,5.264282226562500000e+00
7.244157648086547852e+01,1.010353088378906250e+00,-9.485827445983886719e+00,2.358288526535034180e+00,-2.571105957031250000e+00,-2.021789550781250000e+00,2.433776855468750000e+00
7.245739841461181641e+01,1.010353088378906250e+00,-9.418788909912109375e+00,2.358288526535034180e+00,-1.655578613281250000e+00,2.441406250000000000e-01,-2.212524414062500000e+00
7.247207188606262207e+01,1.010353088378906250e+00,-9.418788909912109375e+00,2.358288526535034180e+00,-2.571105957031250000e+00,2.441406250000000000e-01,-2.212524414062500000e+00
7.248425006866455078e+01,1.249773263931274414e+00,-9.014169692993164062e+00,2.715024709701538086e+00,-3.776550292968750000e+00,2.441406250000000000e-01,-1.411437988281250000e+00
7.249934911727905273e+01,1.587355732917785645e+00,-9.014169692993164062e+00,2.715024709701538086e+00,-3.776550292968750000e+00,1.152038574218750000e+00,-1.411437988281250000e+00
7.251018357276916504e+01,1.249773263931274414e+00,-9.014169692993164062e+00,2.715024709701538086e+00,-3.135681152343750000e+00,1.152038574218750000e+00,4.089355468750000000e+00
7.252604103088378906e+01,8.331821560859680176e-01,-9.478644371032716620e+00,2.918531894683837891e+00,-3.135681152343750000e+00,1.152038574218750000e+00,4.089355468750000000e+00
7.253986954689025879e+01,3.471592366695404053e-01,-9.478644371032716620e+00,2.918531894683837891e+00,-5.569458007812500000e+00,-1.388549804687500000e+00,3.822326660156250000e+00
7.255282521247863770e+01,3.471592366695404053e-01,-9.478644371032716620e+00,2.449268341064453125e+00,-5.569458007812500000e+00,-1.388549804687500000e+00,-2.273559570312500000e+00
7.256828570365905762e+01,1.302445650100708008e+00,-9.361328125000000000e+00,2.449268341064453125e+00,-3.990173339843750000e+00,-1.388549804687500000e+00,-2.273559570312500000e+00
7.258206200599670410e+01,1.302445650100708008e+00,-9.126696586608886719e+00,2.626439332962036133e+00,-2.479553222656250000e+00,-2.716064453125000000e+00,-2.166748046875000000e+00
7.259495759010314941e+01,1.302445650100708008e+00,-9.323020935058593750e+00,2.626439332962036133e+00,-3.990173339843750000e+00,2.273559570312500000e+00,2.899169921875000000e+00
7.260715293884277344e+01,1.261744260787964089e+00,-9.126696586608886719e+00,2.626439332962036133e+00,-4.783630371093750000e+00,3.936767578125000000e+00,4.432678222656250000e+00
7.262450408935546875e+01,-3.591302633285522461e-01,-8.987833023071289062e+00,3.421314239501953125e+00,-4.783630371093750000e+00,3.936767578125000000e+00,4.432678222656250000e+00
7.263700723648071289e+01,-3.591302633285522461e-01,-8.987833023071289062e+00,3.421314239501953125e+00,-2.052307128906250000e+00,2.555847167968750000e+00,4.806518554687500000e-01
7.264848446846008301e+01,9.672574996948242188e-01,-8.736441612243652344e+00,2.904166698455810547e+00,1.296997070312500000e+00,2.555847167968750000e+00,-5.767822265625000000e+00
7.266602611541748047e+01,1.867477297782898171e+00,-9.603142738342283380e+00,2.736572504043579102e+00,-2.052307128906250000e+00,7.171630859375000000e+00,-5.767822265625000000e+00
7.267684221267700195e+01,1.867477297782898171e+00,-9.193734169006347656e+00,2.736572504043579102e+00,-3.158569335937500000e+00,7.171630859375000000e+00,-1.205444335937500000e+00
7.269081807136535645e+01,1.532289028167724609e+00,-9.193734169006347656e+00,2.841917276382446289e+00,-3.158569335937500000e+00,2.548217773437500000e+00,8.712768554687500000e+00
7.270497703552246094e+01,1.000776290893554910e+00,-9.193734169006347656e+00,2.841917276382446289e+00,-3.158569335937500000e+00,2.548217773437500000e+00,8.712768554687500000e+00
7.271786260604858398e+01,6.224924325942992470e-02,-9.933542251586914062e+00,2.485181331634521040e+00,-2.815246582031250000e+00,2.548217773437500000e+00,-1.197814941406250000e+00
7.273341512680053711e+01,6.224924325942992470e-02,-9.933542251586914062e+00,2.485181331634521040e+00,-2.830505371093750000e+00,2.548217773437500000e+00,-3.356933593750000000e+00
7.274693846702575684e+01,1.656787514686584473e+00,-9.246406555175779474e+00,2.485181331634521040e+00,-2.693176269531250000e+00,-1.762390136718750000e+00,-3.356933593750000000e+00
7.276015496253967285e+01,1.671152710914611816e+00,-9.212887763977050781e+00,2.535459518432616743e+00,-2.830505371093750000e+00,-1.762390136718750000e+00,7.019042968750000000e-01
7.277487111091613770e+01,1.671152710914611816e+00,-9.246406555175779474e+00,2.535459518432616743e+00,-3.265380859375000000e+00,-1.762390136718750000e+00,4.760742187500000000e+00
7.278907442092895508e+01,1.254561662673950195e+00,-9.212887763977050781e+00,2.633621931076049805e+00,-3.311157226562500000e+00,-2.563476562500000000e+00,4.760742187500000000e+00
7.280106544494628906e+01,5.195417404174804688e-01,-9.414000511169433594e+00,2.990357875823974609e+00,-3.311157226562500000e+00,-8.087158203125000000e-01,3.738403320312500000e+00
7.281397151947021484e+01,5.195417404174804688e-01,-9.629479408264160156e+00,2.990357875823974609e+00,-3.311157226562500000e+00,-1.533508300781250000e+00,-1.625061035156250000e+00
7.282848501205444336e+01,1.757344007492065430e+00,-9.629479408264160156e+00,2.454056739807128906e+00,-1.228332519531250000e+00,-1.533508300781250000e+00,-1.625061035156250000e+00
7.284040212631225586e+01,1.757344007492065430e+00,-9.641449928283693183e+00,2.109291553497314453e+00,-1.228332519531250000e+00,-7.957458496093750000e+00,2.441406250000000000e+00
7.285581064224243164e+01,2.736572504043579102e+00,-9.641449928283693183e+00,1.872265696525573508e+00,-1.228332519531250000e+00,-7.957458496093750000e+00,3.341674804687500000e+00
7.287095999717712402e+01,3.179499864578247070e+00,-9.641449928283693183e+00,1.872265696525573508e+00,-5.203247070312500000e+00,3.814697265625000000e-01,3.341674804687500000e+00
7.288313698768615723e+01,3.179499864578247070e+00,-9.586383819580078125e+00,2.561795711517333984e+00,-5.531311035156250000e+00,5.165100097656250000e+00,1.831054687500000000e+00
7.289768862724304199e+01,9.337386488914490856e-01,-9.586383819580078125e+00,2.561795711517333984e+00,-5.531311035156250000e+00,5.165100097656250000e+00,1.831054687500000000e+00
7.290964961051940918e+01,9.337386488914490856e-01,-9.861716270446775567e+00,1.599326729774475098e+00,-6.767272949218750000e+00,-7.247924804687500000e-01,1.831054687500000000e+00
7.292523264884948730e+01,9.337386488914490856e-01,-9.861716270446775567e+00,1.599326729774475098e+00,-4.577636718750000000e+00,-7.247924804687500000e-01,1.502990722656250000e+00
7.293968105316162109e+01,5.003881454467773438e-01,-9.825803756713867188e+00,1.874659895896912065e+00,-4.577636718750000000e+00,-7.247924804687500000e-01,1.502990722656250000e+00
7.295166182518005371e+01,5.003881454467773438e-01,-9.555258750915527344e+00,2.056619167327880859e+00,-3.021240234375000000e+00,-2.044677734375000000e+00,1.502990722656250000e+00
7.296591806411743164e+01,1.654393315315246582e+00,-9.555258750915527344e+00,2.056619167327880859e+00,-3.021240234375000000e+00,-2.044677734375000000e+00,-3.814697265625000000e-01
7.297909021377563477e+01,1.654393315315246582e+00,-9.555258750915527344e+00,2.734178304672240767e+00,-5.020141601562500000e+00,9.613037109375000000e-01,-3.814697265625000000e-01
7.299333953857421875e+01,1.091755986213684082e+00,-9.430760383605957031e+00,2.734178304672240767e+00,-5.020141601562500000e+00,9.613037109375000000e-01,1.159667968750000000e+00
7.300901007652282715e+01,1.086967587471008301e+00,-9.430760383605957031e+00,2.734178304672240767e+00,-5.020141601562500000e+00,2.441406250000000000e-01,1.159667968750000000e+00
7.302081012725830078e+01,1.046266078948974609e+00,-9.430760383605957031e+00,2.420537948608398438e+00,-3.738403320312500000e+00,2.441406250000000000e-01,1.159667968750000000e+00
7.303534150123596191e+01,6.607996821403503418e-01,-9.574412345886230469e+00,2.612073898315429688e+00,-3.738403320312500000e+00,2.441406250000000000e-01,9.002685546875000000e-01
7.304832696914672852e+01,6.607996821403503418e-01,-9.574412345886230469e+00,2.612073898315429688e+00,-2.540588378906250000e+00,-1.091003417968750000e+00,-2.151489257812500000e+00
7.306257581710815430e+01,7.398083209991455078e-01,-9.679757118225097656e+00,2.612073898315429688e+00,-2.540588378906250000e+00,-1.091003417968750000e+00,-2.151489257812500000e+00
7.307731389999389648e+01,1.300051450729369895e+00,-9.670180320739746094e+00,2.846705675125122070e+00,-3.189086914062500000e+00,-9.155273437500000000e-02,-7.019042968750000000e-01
7.309045028686523438e+01,1.300051450729369895e+00,-9.670180320739746094e+00,2.846705675125122070e+00,-3.723144531250000000e+00,-9.155273437500000000e-02,2.243041992187500000e+00
7.310498905181884766e+01,1.300051450729369895e+00,-9.373299598693847656e+00,2.846705675125122070e+00,-3.723144531250000000e+00,-9.155273437500000000e-02,2.288818359375000000e+00
7.311746978759765625e+01,1.053448677062988503e+00,-9.373299598693847656e+00,2.801215887069701704e+00,-3.723144531250000000e+00,-2.143859863281250000e+00,2.601623535156250000e+00
7.313248515129089355e+01,1.053448677062988503e+00,-9.485827445983886719e+00,2.801215887069701704e+00,-3.410339355468750000e+00,6.103515625000000000e-02,2.601623535156250000e+00
7.314340376853942871e+01,9.433154463768004261e-01,-9.485827445983886719e+00,2.983175277709961382e+00,-3.410339355468750000e+00,6.103515625000000000e-02,1.434326171875000000e+00
7.315859293937683105e+01,9.433154463768004261e-01,-9.485827445983886719e+00,2.983175277709961382e+00,-2.677917480468750000e+00,6.103515625000000000e-02,1.434326171875000000e+00
7.317494201660156250e+01,1.537077426910400391e+00,-9.911994934082033026e+00,2.695871114730834961e+00,-4.470825195312500000e+00,6.484985351562500000e-01,-2.426147460937500000e+00
7.318610405921936035e+01,1.537077426910400391e+00,-9.911994934082033026e+00,2.695871114730834961e+00,-4.440307617187500000e+00,-4.806518554687500000e-01,2.967834472656250000e+00
7.320031356811523438e+01,1.783680200576782227e+00,-9.902418136596679688e+00,2.695871114730834961e+00,-4.470825195312500000e+00,-4.806518554687500000e-01,2.967834472656250000e+00
7.321487021446228027e+01,7.062894701957702637e-01,-9.497797966003417969e+00,2.853888273239136186e+00,-4.440307617187500000e+00,-1.022338867187500000e+00,3.852844238281250000e+00
7.322832417488098145e+01,7.948749661445617676e-01,-9.629479408264160156e+00,2.195482969284057617e+00,-3.646850585937500000e+00,-1.022338867187500000e+00,3.852844238281250000e+00
7.324285197257995605e+01,7.948749661445617676e-01,-9.497797966003417969e+00,2.853888273239136186e+00,-2.952575683593750000e+00,-1.907348632812500000e-01,3.967285156250000000e-01
7.325691175460815430e+01,1.094150185585021973e+00,-9.430760383605957031e+00,2.899378299713134766e+00,-2.662658691406250000e+00,-1.907348632812500000e-01,3.967285156250000000e-01
7.326974916458129883e+01,1.094150185585021973e+00,-9.430760383605957031e+00,3.016694068908691406e+00,-2.662658691406250000e+00,-8.392333984375000000e-02,1.747131347656250000e+00
7.328163576126098633e+01,9.696516990661619984e-01,-9.531316757202148438e+00,2.899378299713134766e+00,-2.197265625000000000e+00,-4.043579101562500000e-01,2.342224121093750000e+00
7.329886722564697266e+01,9.696516990661619984e-01,-9.531316757202148438e+00,2.810792684555053711e+00,-3.761291503906250000e+00,-8.392333984375000000e-02,2.342224121093750000e+00
7.331192898750305176e+01,1.580173134803771973e+00,-9.267954826354980469e+00,2.810792684555053711e+00,-3.761291503906250000e+00,8.392333984375000000e-01,1.770019531250000000e+00
7.332411170005798340e+01,1.580173134803771973e+00,-9.205705642700195312e+00,3.114856243133544922e+00,-5.279541015625000000e+00,8.392333984375000000e-01,1.174926757812500000e+00
7.334105563163757324e+01,9.672574996948242188e-01,-9.267954826354980469e+00,3.114856243133544922e+00,-5.279541015625000000e+00,6.637573242187500000e-01,1.770019531250000000e+00
7.335202646255493164e+01,9.672574996948242188e-01,-9.229647636413574219e+00,2.875436305999756303e+00,-5.279541015625000000e+00,-3.433227539062500000e-01,1.174926757812500000e+00
7.336530947685241699e+01,1.371877551078796387e+00,-9.440337181091306817e+00,2.729389905929564986e+00,-3.990173339843750000e+00,-4.501342773437500000e-01,2.975463867187500000e+00
7.338322639465332031e+01,1.371877551078796387e+00,-9.308655738830566406e+00,2.875436305999756303e+00,-4.623413085937500000e+00,-3.433227539062500000e-01,2.204895019531250000e+00
7.339389824867248535e+01,9.145850539207458496e-01,-9.308655738830566406e+00,3.038241863250732422e+00,-4.234313964843750000e+00,-4.501342773437500000e-01,2.738952636718750000e+00
7.340808176994323730e+01,9.145850539207458496e-01,-9.308655738830566406e+00,3.038241863250732422e+00,-4.234313964843750000e+00,-2.189636230468750000e+00,2.204895019531250000e+00
7.342204809188842773e+01,1.221042871475219505e+00,-9.351751327514648438e+00,2.772485494613647461e+00,-3.387451171875000000e+00,-2.189636230468750000e+00,1.045227050781250000e+00
7.343480062484741211e+01,1.357512354850769043e+00,-9.351751327514648438e+00,2.772485494613647461e+00,-3.387451171875000000e+00,-6.942749023437500000e-01,1.045227050781250000e+00
7.344692420959472656e+01,1.546654224395751953e+00,-9.222464561462402344e+00,2.947262287139892578e+00,-3.440856933593750000e+00,-6.942749023437500000e-01,3.234863281250000000e+00
7.346111392974853516e+01,1.357512354850769043e+00,-9.222464561462402344e+00,2.947262287139892578e+00,-3.868103027343750000e+00,-1.193237304687500000e+01,8.377075195312500000e+00
7.347672033309936523e+01,5.602431893348693848e-01,-9.753977775573730469e+00,1.910572886466979980e+00,-3.868103027343750000e+00,-1.193237304687500000e+01,8.377075195312500000e+00
7.348884773254394531e+01,5.602431893348693848e-01,-9.753977775573730469e+00,1.910572886466979980e+00,-4.997253417968750000e+00,3.974914550781250000e+00,-1.609802246093750000e+00
7.350284051895141602e+01,2.090137958526611772e+00,-9.440337181091306817e+00,3.289633035659790039e+00,-6.355285644531250000e+00,4.364013671875000000e+00,-1.609802246093750000e+00
7.351599574089050293e+01,2.090137958526611772e+00,-9.440337181091306817e+00,3.289633035659790039e+00,-4.997253417968750000e+00,3.974914550781250000e+00,-1.129150390625000000e+00
7.353031659126281738e+01,8.092401623725891113e-01,-9.440337181091306817e+00,3.289633035659790039e+00,-3.356933593750000000e+00,-1.068115234375000000e-01,3.013610839843750000e+00
7.354249811172485352e+01,8.092401623725891113e-01,-9.208099365234376776e+00,2.983175277709961382e+00,-3.356933593750000000e+00,-1.991271972656250000e+00,3.013610839843750000e+00
7.355701065063476562e+01,1.268926858901977539e+00,-8.980650901794433594e+00,2.825157880783081055e+00,-3.395080566406250000e+00,-1.991271972656250000e+00,-3.814697265625000000e-01
7.356969475746154785e+01,1.491587638854980469e+00,-9.208099365234376776e+00,2.825157880783081055e+00,-3.944396972656250000e+00,-1.754760742187500000e+00,-3.814697265625000000e-01
7.358480715751647949e+01,1.491587638854980469e+00,-9.437942504882812500e+00,2.825157880783081055e+00,-3.761291503906250000e+00,-3.509521484375000000e-01,1.251220703125000000e+00
7.359997081756591797e+01,9.002197980880737305e-01,-9.437942504882812500e+00,2.918531894683837891e+00,-3.761291503906250000e+00,-3.509521484375000000e-01,1.251220703125000000e+00
7.361242413520812988e+01,9.002197980880737305e-01,-9.155426979064939630e+00,2.918531894683837891e+00,-3.547668457031250000e+00,-1.930236816406250000e+00,1.251220703125000000e+00
7.362713027000427246e+01,1.086967587471008301e+00,-9.155426979064939630e+00,2.918531894683837891e+00,-3.547668457031250000e+00,-1.930236816406250000e+00,1.876831054687500000e+00
7.363843679428100586e+01,1.086967587471008301e+00,-9.878476142883300781e+00,2.549824714660644531e+00,-3.807067871093750000e+00,-9.689331054687500000e-01,1.899719238281250000e+00
7.365426373481750488e+01,9.361328482627867542e-01,-9.878476142883300781e+00,2.549824714660644531e+00,-3.807067871093750000e+00,-6.713867187500000000e-01,1.876831054687500000e+00
7.366866517066955566e+01,9.361328482627867542e-01,-9.380481719970703125e+00,2.549824714660644531e+00,-3.807067871093750000e+00,-7.171630859375000000e-01,0.000000000000000000e+00
7.368108224868774414e+01,9.744400978088380016e-01,-9.380481719970703125e+00,3.023876667022705078e+00,-4.257202148437500000e+00,-6.713867187500000000e-01,-1.220703125000000000e-01
7.369540452957153320e+01,1.053448677062988503e+00,-9.442730903625488281e+00,2.841917276382446289e+00,-4.257202148437500000e+00,-2.288818359375000000e-01,-1.220703125000000000e-01
7.370717382431030273e+01,1.053448677062988503e+00,-9.442730903625488281e+00,3.023876667022705078e+00,-2.914428710937500000e+00,1.106262207031250000e+00,3.379821777343750000e+00
7.372326374053955078e+01,1.079784989356994629e+00,-9.384073257446287286e+00,2.841917276382446289e+00,-2.914428710937500000e+00,-3.814697265625000000e-02,3.379821777343750000e+00
7.373727011680603027e+01,1.079784989356994629e+00,-9.165003776550292969e+00,3.122039079666137695e+00,-2.670288085937500000e+00,3.051757812500000000e-02,3.097534179687500000e+00
7.374881911277770996e+01,1.079784989356994629e+00,-9.165003776550292969e+00,2.746149301528930664e+00,-3.852844238281250000e+00,3.051757812500000000e-02,2.487182617187500000e+00
7.376527261734008789e+01,9.217676520347596325e-01,-9.430760383605957031e+00,2.552218914031982422e+00,-3.852844238281250000e+00,3.051757812500000000e-02,2.487182617187500000e+00
7.377595806121826172e+01,1.082179188728332297e+00,-9.430760383605957031e+00,2.552218914031982422e+00,-3.852844238281250000e+00,-6.713867187500000000e-01,-3.509521484375000000e-01
7.379183697700500488e+01,1.082179188728332297e+00,-9.253589630126953125e+00,2.844311475753783736e+00,-3.730773925781250000e+00,-6.942749023437500000e-01,-3.509521484375000000e-01
7.380771231651306152e+01,1.221042871475219505e+00,-9.253589630126953125e+00,2.844311475753783736e+00,-3.730773925781250000e+00,-6.942749023437500000e-01,2.296447753906250000e+00
7.381895709037780762e+01,1.221042871475219505e+00,-9.481039047241212714e+00,2.916137695312500000e+00,-4.600524902343750000e+00,1.220703125000000000e-01,2.296447753906250000e+00
7.383417344093322754e+01,7.038952708244323730e-01,-9.548076629638671875e+00,3.021482467651366743e+00,-4.600524902343750000e+00,1.220703125000000000e-01,-4.043579101562500000e-01
7.384829688072204590e+01,7.038952708244323730e-01,-9.481039047241212714e+00,3.021482467651366743e+00,-2.021789550781250000e+00,-1.106262207031250000e+00,-4.043579101562500000e-01
7.386086916923522949e+01,1.379060149192810059e+00,-9.466672897338867188e+00,2.767697095870972124e+00,-2.021789550781250000e+00,-1.106262207031250000e+00,-4.043579101562500000e-01
7.387431740760803223e+01,1.379060149192810059e+00,-9.215282440185546875e+00,2.767697095870972124e+00,-3.700256347656250000e+00,2.822875976562500000e-01,2.975463867187500000e-01
7.389000844955444336e+01,1.005564689636230469e+00,-9.382876396179199219e+00,2.767697095870972124e+00,-3.700256347656250000e+00,2.822875976562500000e-01,-1.121520996093750000e+00
7.390289807319641113e+01,1.005564689636230469e+00,-9.215282440185546875e+00,2.990357875823974609e+00,-3.700256347656250000e+00,-3.814697265625000000e-01,-4.577636718750000000e-02
7.391510558128356934e+01,1.134851574897765891e+00,-9.382876396179199219e+00,2.619256734848022461e+00,-3.944396972656250000e+00,-3.814697265625000000e-01,-4.577636718750000000e-02
7.393177318572998047e+01,1.134851574897765891e+00,-9.569623947143556464e+00,2.568978309631348100e+00,-3.944396972656250000e+00,-4.653930664062500000e-01,4.272460937500000000e-01
7.394217419624328613e+01,9.145850539207458496e-01,-9.569623947143556464e+00,2.568978309631348100e+00,-3.242492675781250000e+00,-5.950927734375000000e-01,5.416870117187500000e-01
7.395653319358825684e+01,8.140285611152648926e-01,-9.220070838928224433e+00,3.078943252563477007e+00,-3.242492675781250000e+00,-5.950927734375000000e-01,4.272460937500000000e-01
7.397104597091674805e+01,8.140285611152648926e-01,-9.220070838928224433e+00,3.078943252563477007e+00,-2.922058105468750000e+00,-4.043579101562500000e-01,5.874633789062500000e-01
7.398311543464660645e+01,1.154005169868469238e+00,-9.390058517456056464e+00,2.999934673309326172e+00,-2.922058105468750000e+00,-4.043579101562500000e-01,5.874633789062500000e-01
7.399871706962585449e+01,1.154005169868469238e+00,-9.390058517456056464e+00,2.999934673309326172e+00,-2.922058105468750000e+00,-4.043579101562500000e-01,1.029968261718750000e+00
7.401280307769775391e+01,1.410184741020202637e+00,-9.390058517456056464e+00,2.999934673309326172e+00,-3.623962402343750000e+00,-1.541137695312500000e+00,2.075195312500000000e+00
7.402575898170471191e+01,5.530605912208557129e-01,-9.148244857788085938e+00,3.241749048233031782e+00,-4.653930664062500000e+00,-7.553100585937500000e-01,2.075195312500000000e+00
7.403769397735595703e+01,1.410184741020202637e+00,-9.148244857788085938e+00,2.975992679595947710e+00,-3.623962402343750000e+00,-1.068115234375000000e+00,2.075195312500000000e+00
7.405487990379333496e+01,1.458068847656250000e+00,-9.148244857788085938e+00,2.975992679595947710e+00,-4.653930664062500000e+00,-7.553100585937500000e-01,2.334594726562500000e+00
7.406675100326538086e+01,1.458068847656250000e+00,-9.291896820068359375e+00,2.975992679595947710e+00,-4.180908203125000000e+00,-1.296997070312500000e-01,2.334594726562500000e+00
7.407946109771728516e+01,1.086967587471008301e+00,-9.433154106140136719e+00,2.463633537292480469e+00,-4.180908203125000000e+00,-1.296997070312500000e-01,1.449584960937500000e+00
7.409436702728271484e+01,1.086967587471008301e+00,-9.433154106140136719e+00,2.992752075195312500e+00,-4.180908203125000000e+00,-8.392333984375000000e-02,9.307861328125000000e-01
7.410609364509582520e+01,1.168370366096496582e+00,-9.085995674133300781e+00,2.947262287139892578e+00,-3.158569335937500000e+00,-1.678466796875000000e-01,1.449584960937500000e+00
7.412126255035400391e+01,1.168370366096496582e+00,-9.085995674133300781e+00,2.947262287139892578e+00,-4.737854003906250000e+00,-8.392333984375000000e-02,1.983642578125000000e-01
7.413293576240539551e+01,9.241618514060974121e-01,-9.129091262817382812e+00,2.904166698455810547e+00,-3.158569335937500000e+00,-1.678466796875000000e-01,7.781982421875000000e-01
7.415367889404296875e+01,9.241618514060974121e-01,-9.169792175292966974e+00,2.837128877639770508e+00,-5.172729492187500000e+00,8.392333984375000000e-01,1.983642578125000000e-01
7.416461014747619629e+01,7.374141216278076172e-01,-9.169792175292966974e+00,2.904166698455810547e+00,-5.172729492187500000e+00,-6.637573242187500000e-01,4.653930664062500000e-01
7.417513871192932129e+01,1.441309452056884766e+00,-9.224859237670898438e+00,2.837128877639770508e+00,-5.172729492187500000e+00,-6.637573242187500000e-01,4.653930664062500000e-01
7.419043302536010742e+01,7.374141216278076172e-01,-9.224859237670898438e+00,3.165134668350220171e+00,-4.142761230468750000e+00,-1.205444335937500000e+00,4.653930664062500000e-01
7.420191097259521484e+01,9.097966551780699573e-01,-9.368511199951171875e+00,3.265691041946411133e+00,-4.142761230468750000e+00,-1.441955566406250000e+00,1.266479492187500000e+00
7.421783781051635742e+01,9.097966551780699573e-01,-9.368511199951171875e+00,3.265691041946411133e+00,-4.142761230468750000e+00,-1.441955566406250000e+00,1.266479492187500000e+00
7.422951292991638184e+01,9.097966551780699573e-01,-9.368511199951171875e+00,3.265691041946411133e+00,-3.776550292968750000e+00,-3.967285156250000000e-01,1.266479492187500000e+00
7.424495410919189453e+01,6.392518281936645508e-01,-9.531316757202148438e+00,3.368641853332519531e+00,-3.776550292968750000e+00,-2.822875976562500000e-01,9.078979492187500000e-01
7.425674009323120117e+01,6.392518281936645508e-01,-9.531316757202148438e+00,3.368641853332519531e+00,-4.096984863281250000e+00,-3.051757812500000000e-01,6.942749023437500000e-01
7.427215099334716797e+01,7.182605266571044922e-01,-9.531316757202148438e+00,3.368641853332519531e+00,-4.096984863281250000e+00,-3.051757812500000000e-01,9.078979492187500000e-01
7.428444576263427734e+01,1.515529632568359375e+00,-9.356539726257324219e+00,2.025494575500488281e+00,-4.096984863281250000e+00,-3.051757812500000000e-01,3.059387207031250000e+00
7.429904460906982422e+01,7.182605266571044922e-01,-9.356539726257324219e+00,3.023876667022705078e+00,-4.501342773437500000e+00,1.632690429687500000e+00,3.059387207031250000e+00
7.431322598457336426e+01,2.873041927814484198e-01,-9.356539726257324219e+00,2.592920303344726562e+00,-4.501342773437500000e+00,1.632690429687500000e+00,3.059387207031250000e+00
7.432536458969116211e+01,2.873041927814484198e-01,-9.378087997436523438e+00,2.777273893356323242e+00,-5.355834960937500000e+00,3.662109375000000000e-01,1.213073730468750000e+00
7.434070372581481934e+01,2.873041927814484198e-01,-9.378087997436523438e+00,2.777273893356323242e+00,-5.355834960937500000e+00,-6.790161132812500000e-01,1.213073730468750000e+00
7.435335469245910645e+01,1.326387763023376465e+00,-9.464279174804687500e+00,2.777273893356323242e+00,-5.355834960937500000e+00,-6.790161132812500000e-01,1.213073730468750000e+00
7.436801290512084961e+01,1.326387763023376465e+00,-9.464279174804687500e+00,3.102885246276855469e+00,-3.059387207031250000e+00,-6.790161132812500000e-01,-1.335144042968750000e+00
7.438262772560119629e+01,1.326387763023376465e+00,-9.303867340087890625e+00,3.102885246276855469e+00,-3.059387207031250000e+00,-5.340576171875000000e-02,-6.866455078125000000e-01
7.439551067352294922e+01,1.228225469589233398e+00,-9.303867340087890625e+00,3.102885246276855469e+00,-3.059387207031250000e+00,-5.340576171875000000e-02,-6.866455078125000000e-01
7.441022753715515137e+01,6.991068720817565918e-01,-9.303867340087890625e+00,3.416525840759277344e+00,-2.685546875000000000e+00,-1.197814941406250000e+00,-6.866455078125000000e-01
7.442192912101745605e+01,1.228225469589233398e+00,-9.184157371520996094e+00,3.153163671493530273e+00,-2.685546875000000000e+00,-1.197814941406250000e+00,2.403259277343750000e+00
7.443773412704467773e+01,1.003170490264892578e+00,-9.184157371520996094e+00,3.153163671493530273e+00,-4.417419433593750000e+00,-3.128051757812500000e-01,-7.553100585937500000e-01
7.444875836372375488e+01,1.003170490264892578e+00,-9.674968719482421875e+00,2.896984100341796875e+00,-4.417419433593750000e+00,-3.128051757812500000e-01,2.616882324218750000e+00
7.446307277679443359e+01,1.003170490264892578e+00,-9.674968719482421875e+00,2.798821687698364258e+00,-4.867553710937500000e+00,-6.866455078125000000e-01,1.342773437500000000e+00
7.448099565505981445e+01,1.201889276504516602e+00,-9.174580574035644531e+00,2.880224704742432085e+00,-4.867553710937500000e+00,-6.866455078125000000e-01,1.342773437500000000e+00
7.449178934097290039e+01,1.201889276504516602e+00,-9.174580574035644531e+00,2.817975282669067383e+00,-4.867553710937500000e+00,-6.866455078125000000e-01,1.342773437500000000e+00
7.450604104995727539e+01,1.149216771125793679e+00,-9.337386131286619317e+00,2.880224704742432085e+00,-3.417968750000000000e+00,-6.561279296875000000e-01,2.639770507812500000e+00
7.452312541007995605e+01,8.188169598579406738e-01,-9.337386131286619317e+00,2.817975282669067383e+00,-3.417968750000000000e+00,-6.561279296875000000e-01,2.639770507812500000e+00
7.453538680076599121e+01,1.149216771125793679e+00,-9.337386131286619317e+00,2.767697095870972124e+00,-3.417968750000000000e+00,-6.561279296875000000e-01,9.078979492187500000e-01
7.454727816581726074e+01,1.108515381813049094e+00,-9.246406555175779474e+00,2.767697095870972124e+00,-2.868652343750000000e+00,1.602172851562500000e-01,9.078979492187500000e-01
7.456223011016845703e+01,1.261744260787964089e+00,-9.785101890563963067e+00,2.652775526046752930e+00,-2.868652343750000000e+00,5.187988281250000000e-01,9.078979492187500000e-01
7.457411479949951172e+01,1.108515381813049094e+00,-9.323020935058593750e+00,2.882618904113769087e+00,-3.166198730468750000e+00,5.187988281250000000e-01,5.493164062500000000e-01
7.458857655525207520e+01,1.261744260787964089e+00,-9.323020935058593750e+00,2.877830505371093750e+00,-3.166198730468750000e+00,2.365112304687500000e-01,5.493164062500000000e-01
7.460413789749145508e+01,1.465251445770263672e+00,-9.323020935058593750e+00,2.882618904113769087e+00,-3.166198730468750000e+00,2.365112304687500000e-01,1.419067382812500000e+00
7.461651754379272461e+01,1.465251445770263672e+00,-9.397241592407226562e+00,2.877830505371093750e+00,-3.227233886718750000e+00,6.866455078125000000e-02,1.419067382812500000e+00
7.462846708297729492e+01,7.302315235137940563e-01,-9.414000511169433594e+00,2.932897090911864790e+00,-3.562927246093750000e+00,6.866455078125000000e-02,3.662109375000000000e-01
7.464536547660827637e+01,7.302315235137940563e-01,-9.552865028381347656e+00,2.932897090911864790e+00,-3.234863281250000000e+00,-5.187988281250000000e-01,2.975463867187500000e-01
7.465594124794006348e+01,1.398213744163513184e+00,-9.595960617065429688e+00,2.932897090911864790e+00,-3.562927246093750000e+00,-5.798339843750000000e-01,2.975463867187500000e-01
7.467018699645996094e+01,1.398213744163513184e+00,-9.595960617065429688e+00,2.932897090911864790e+00,-3.273010253906250000e+00,-5.187988281250000000e-01,6.866455078125000000e-01
7.468546748161315918e+01,6.679822802543640137e-01,-9.564835548400880683e+00,2.796427488327026367e+00,-3.814697265625000000e+00,3.814697265625000000e-02,6.866455078125000000e-01
7.469735836982727051e+01,6.679822802543640137e-01,-9.564835548400880683e+00,2.796427488327026367e+00,-3.730773925781250000e+00,3.814697265625000000e-02,6.256103515625000000e-01
7.471264839172363281e+01,1.070208191871642844e+00,-9.564835548400880683e+00,2.796427488327026367e+00,-3.730773925781250000e+00,6.179809570312500000e-01,-1.525878906250000000e-02
7.472484707832336426e+01,1.070208191871642844e+00,-9.284713745117187500e+00,2.825157880783081055e+00,-3.540039062500000000e+00,3.051757812500000000e-02,6.256103515625000000e-01
7.473942804336547852e+01,1.070208191871642844e+00,-9.284713745117187500e+00,2.825157880783081055e+00,-3.540039062500000000e+00,3.051757812500000000e-02,1.480102539062500000e+00
7.475129055976867676e+01,7.876923680305480957e-01,-9.504981040954589844e+00,2.825157880783081055e+00,-4.165649414062500000e+00,-7.247924804687500000e-01,1.480102539062500000e+00
7.476669359207153320e+01,9.888052940368652344e-01,-9.504981040954589844e+00,3.011905670166016069e+00,-4.165649414062500000e+00,-8.697509765625000000e-01,2.830505371093750000e+00
7.478098273277282715e+01,9.888052940368652344e-01,-9.493009567260742188e+00,3.011905670166016069e+00,-3.990173339843750000e+00,-7.247924804687500000e-01,1.045227050781250000e+00
7.479374456405639648e+01,1.209071874618530495e+00,-9.399635314941406250e+00,3.112462043762207031e+00,-3.990173339843750000e+00,-5.874633789062500000e-01,3.128051757812500000e+00
7.480911898612976074e+01,1.529894828796386719e+00,-9.088389396667480469e+00,3.383007049560546875e+00,-3.990173339843750000e+00,4.577636718750000000e+00,1.045227050781250000e+00
7.482117080688476562e+01,1.209071874618530495e+00,-9.088389396667480469e+00,3.383007049560546875e+00,-3.646850585937500000e+00,4.577636718750000000e+00,-2.037048339843750000e+00
7.483609318733215332e+01,8.188169598579406738e-01,-9.179368972778320312e+00,3.648763418197631836e+00,-3.646850585937500000e+00,4.020690917968750000e+00,-2.037048339843750000e+00
7.485009455680847168e+01,8.188169598579406738e-01,-9.294290542602539062e+00,3.349488019943237305e+00,-3.646850585937500000e+00,-9.002685546875000000e-01,1.197814941406250000e+00
7.486225748062133789e+01,8.188169598579406738e-01,-9.753977775573730469e+00,3.349488019943237305e+00,-2.464294433593750000e+00,-9.002685546875000000e-01,1.197814941406250000e+00
7.487698554992675781e+01,7.876923680305480957e-01,-9.753977775573730469e+00,3.004723072052001953e+00,-2.464294433593750000e+00,-9.002685546875000000e-01,7.247924804687500000e-01
7.489041113853454590e+01,7.876923680305480957e-01,-9.351751327514648438e+00,3.004723072052001953e+00,-3.395080566406250000e+00,6.484985351562500000e-01,7.247924804687500000e-01
7.490537714958190918e+01,1.058237075805664062e+00,-9.174580574035644531e+00,3.004723072052001953e+00,-3.395080566406250000e+00,6.484985351562500000e-01,7.247924804687500000e-01
7.491640019416809082e+01,1.060631394386291504e+00,-9.145850181579589844e+00,3.064578056335448775e+00,-3.395080566406250000e+00,6.484985351562500000e-01,1.159667968750000000e+00
7.493228244781494141e+01,1.060631394386291504e+00,-9.145850181579589844e+00,3.268085241317748579e+00,-5.447387695312500000e+00,3.356933593750000000e-01,1.434326171875000000e+00
7.494739651679992676e+01,1.060631394386291504e+00,-9.804255485534667969e+00,3.268085241317748579e+00,-5.447387695312500000e+00,3.356933593750000000e-01,1.434326171875000000e+00
7.495898222923278809e+01,8.331821560859680176e-01,-9.804255485534667969e+00,2.930502891540527788e+00,-3.799438476562500000e+00,-6.790161132812500000e-01,1.434326171875000000e+00
7.497324395179748535e+01,8.331821560859680176e-01,-9.593565940856933594e+00,2.930502891540527788e+00,-2.937316894531250000e+00,-6.790161132812500000e-01,1.991271972656250000e+00
7.498650956153869629e+01,1.218648672103881836e+00,-9.212887763977050781e+00,2.930502891540527788e+00,-2.937316894531250000e+00,3.051757812500000000e-01,1.991271972656250000e+00
7.500074553489685059e+01,1.218648672103881836e+00,-9.212887763977050781e+00,2.652775526046752930e+00,-3.608703613281250000e+00,4.348754882812500000e-01,6.103515625000000000e-02
7.501263284683227539e+01,1.175552964210510476e+00,-9.212887763977050781e+00,2.652775526046752930e+00,-3.608703613281250000e+00,3.051757812500000000e-01,6.103515625000000000e-02
7.502831959724426270e+01,1.175552964210510476e+00,-9.215282440185546875e+00,2.710236310958862305e+00,-3.608703613281250000e+00,0.000000000000000000e+00,2.365112304687500000e-01
7.504252696037292480e+01,1.175552964210510476e+00,-9.514557838439939630e+00,2.789244890213012695e+00,-4.142761230468750000e+00,0.000000000000000000e+00,2.365112304687500000e-01
7.505467367172241211e+01,9.121908545494079590e-01,-9.667786598205566406e+00,2.789244890213012695e+00,-4.142761230468750000e+00,3.738403320312500000e-01,-6.866455078125000000e-02
7.507149982452392578e+01,9.121908545494079590e-01,-9.667786598205566406e+00,3.011905670166016069e+00,-3.616333007812500000e+00,3.738403320312500000e-01,-6.866455078125000000e-02
7.508209681510925293e+01,1.180341362953186035e+00,-9.648633003234863281e+00,3.011905670166016069e+00,-3.463745117187500000e+00,-9.918212890625000000e-01,1.029968261718750000e+00
7.509639501571655273e+01,1.180341362953186035e+00,-9.392453193664550781e+00,2.889801502227783203e+00,-3.463745117187500000e+00,-9.918212890625000000e-01,1.228332519531250000e+00
7.511104464530944824e+01,9.074024558067321777e-01,-8.990227699279785156e+00,2.729389905929564986e+00,-3.555297851562500000e+00,6.866455078125000000e-02,1.213073730468750000e+00
7.512369775772094727e+01,9.074024558067321777e-01,-8.990227699279785156e+00,2.729389905929564986e+00,-3.684997558593750000e+00,6.866455078125000000e-02,1.213073730468750000e+00
7.513607811927795410e+01,1.118092179298400879e+00,-9.416395187377929688e+00,2.729389905929564986e+00,-4.150390625000000000e+00,3.967285156250000000e-01,4.577636718750000000e-02
7.515308666229248047e+01,1.118092179298400879e+00,-9.447519302368164062e+00,3.057395458221435547e+00,-4.150390625000000000e+00,-1.831054687500000000e-01,4.577636718750000000e-02
7.516497325897216797e+01,9.888052940368652344e-01,-9.469067573547363281e+00,3.057395458221435547e+00,-3.532409667968750000e+00,-1.831054687500000000e-01,7.553100585937500000e-01
7.517793107032775879e+01,9.888052940368652344e-01,-9.667786598205566406e+00,2.892195701599121094e+00,-3.532409667968750000e+00,-1.831054687500000000e-01,7.553100585937500000e-01
7.519484496116638184e+01,1.089361786842346191e+00,-9.667786598205566406e+00,2.892195701599121094e+00,-3.791809082031250000e+00,-8.468627929687500000e-01,2.822875976562500000e-01
7.520482873916625977e+01,1.115697979927062988e+00,-9.562441825866699219e+00,2.892195701599121094e+00,-3.791809082031250000e+00,-8.468627929687500000e-01,2.822875976562500000e-01
7.521940898895263672e+01,1.115697979927062988e+00,-9.394846916198730469e+00,2.695871114730834961e+00,-3.776550292968750000e+00,-8.468627929687500000e-01,1.777648925781250000e+00
7.523631834983825684e+01,1.115697979927062988e+00,-9.387664794921876776e+00,2.695871114730834961e+00,-3.776550292968750000e+00,9.918212890625000000e-02,1.777648925781250000e+00
7.524654865264892578e+01,9.840168952941895641e-01,-9.387664794921876776e+00,2.777273893356323242e+00,-3.776550292968750000e+00,9.918212890625000000e-02,5.416870117187500000e-01
7.526219534873962402e+01,9.840168952941895641e-01,-9.387664794921876776e+00,2.798821687698364258e+00,-4.058837890625000000e+00,-3.433227539062500000e-01,5.416870117187500000e-01
7.527618598937988281e+01,1.094150185585021973e+00,-9.311050415039062500e+00,2.798821687698364258e+00,-4.028320312500000000e+00,-3.433227539062500000e-01,7.324218750000000000e-01
7.528825664520263672e+01,1.094150185585021973e+00,-9.248801231384275567e+00,2.798821687698364258e+00,-4.028320312500000000e+00,-3.433227539062500000e-01,1.091003417968750000e+00
7.530036520957946777e+01,9.864110946655272327e-01,-9.248801231384275567e+00,2.750937700271606445e+00,-3.799438476562500000e+00,-4.653930664062500000e-01,7.324218750000000000e-01
7.531592655181884766e+01,9.864110946655272327e-01,-9.248801231384275567e+00,2.750937700271606445e+00,-3.593444824218750000e+00,-4.653930664062500000e-01,1.052856445312500000e+00
7.532990646362304688e+01,1.019929885864257812e+00,-9.315838813781738281e+00,2.748543500900268999e+00,-3.593444824218750000e+00,-2.365112304687500000e-01,1.052856445312500000e+00
7.534243535995483398e+01,1.029506683349609375e+00,-9.308655738830566406e+00,2.758120298385620117e+00,-3.700256347656250000e+00,1.983642578125000000e-01,1.052856445312500000e+00
7.535844063758850098e+01,1.029506683349609375e+00,-9.308655738830566406e+00,2.671929121017456055e+00,-3.860473632812500000e+00,1.983642578125000000e-01,1.060485839843750000e+00
7.536936092376708984e+01,1.029506683349609375e+00,-9.308655738830566406e+00,2.839523077011108398e+00,-3.829956054687500000e+00,1.525878906250000000e-02,8.087158203125000000e-01
7.538463306427001953e+01,1.065419793128967285e+00,-9.373299598693847656e+00,2.844311475753783736e+00,-3.829956054687500000e+00,-3.051757812500000000e-01,8.087158203125000000e-01
7.539928126335144043e+01,1.065419793128967285e+00,-9.373299598693847656e+00,2.844311475753783736e+00,-3.219604492187500000e+00,-3.051757812500000000e-01,8.087158203125000000e-01
7.541132974624633789e+01,1.000776290893554910e+00,-9.349357604980466974e+00,2.691082715988159180e+00,-3.219604492187500000e+00,-3.051757812500000000e-01,9.460449218750000000e-01
7.542651391029357910e+01,1.000776290893554910e+00,-9.349357604980466974e+00,2.691082715988159180e+00,-4.104614257812500000e+00,3.433227539062500000e-01,9.460449218750000000e-01
7.543889260292053223e+01,1.010353088378906250e+00,-9.327809333801269531e+00,2.935291290283203125e+00,-4.104614257812500000e+00,3.433227539062500000e-01,4.272460937500000000e-01
7.545310759544372559e+01,1.139639973640442117e+00,-9.394846916198730469e+00,2.935291290283203125e+00,-3.868103027343750000e+00,-1.091003417968750000e+00,4.272460937500000000e-01
7.546891474723815918e+01,1.139639973640442117e+00,-9.394846916198730469e+00,2.885013103485107422e+00,-3.868103027343750000e+00,-1.091003417968750000e+00,1.266479492187500000e+00
7.548147010803222656e+01,1.041477680206298828e+00,-9.423577308654783380e+00,2.853888273239136186e+00,-3.868103027343750000e+00,-4.043579101562500000e-01,1.266479492187500000e+00
7.549588441848754883e+01,1.041477680206298828e+00,-9.423577308654783380e+00,2.853888273239136186e+00,-3.578186035156250000e+00,-4.043579101562500000e-01,6.484985351562500000e-01
7.550798082351684570e+01,1.053448677062988503e+00,-9.414000511169433594e+00,2.803610086441040039e+00,-3.578186035156250000e+00,-8.163452148437500000e-01,6.484985351562500000e-01
7.552253055572509766e+01,1.079784989356994629e+00,-9.313444137573242188e+00,2.803610086441040039e+00,-4.020690917968750000e+00,-8.163452148437500000e-01,4.425048828125000000e-01
7.553715372085571289e+01,1.053448677062988503e+00,-9.296685218811036933e+00,2.837128877639770508e+00,-4.020690917968750000e+00,-8.163452148437500000e-01,4.272460937500000000e-01
7.554940652847290039e+01,9.935936927795409046e-01,-9.313444137573242188e+00,2.837128877639770508e+00,-4.005432128906250000e+00,-7.781982421875000000e-01,4.272460937500000000e-01
7.556463575363159180e+01,9.935936927795409046e-01,-9.318232536315917969e+00,2.849099874496459961e+00,-3.723144531250000000e+00,-7.781982421875000000e-01,7.934570312500000000e-01
7.557708597183227539e+01,1.072602391242980957e+00,-9.318232536315917969e+00,2.722207307815552202e+00,-4.005432128906250000e+00,-7.019042968750000000e-01,7.934570312500000000e-01
7.559129333496093750e+01,1.072602391242980957e+00,-9.114726066589355469e+00,2.849099874496459961e+00,-4.180908203125000000e+00,-4.882812500000000000e-01,6.484985351562500000e-01
7.560315012931823730e+01,9.337386488914490856e-01,-9.114726066589355469e+00,2.971204280853271484e+00,-4.180908203125000000e+00,1.335144042968750000e+00,5.111694335937500000e-01
7.561934471130371094e+01,9.337386488914490856e-01,-9.414000511169433594e+00,2.971204280853271484e+00,-3.776550292968750000e+00,1.335144042968750000e+00,6.484985351562500000e-01
7.562987637519836426e+01,1.098938584327697754e+00,-9.414000511169433594e+00,2.712630510330200195e+00,-3.776550292968750000e+00,8.926391601562500000e-01,1.434326171875000000e+00
7.564574766159057617e+01,1.098938584327697754e+00,-9.339780807495117188e+00,2.712630510330200195e+00,-4.043579101562500000e+00,8.926391601562500000e-01,1.434326171875000000e+00
7.566140556335449219e+01,9.145850539207458496e-01,-9.284713745117187500e+00,2.801215887069701704e+00,-4.043579101562500000e+00,8.926391601562500000e-01,7.705688476562500000e-01
7.567217612266540527e+01,9.145850539207458496e-01,-9.339780807495117188e+00,2.877830505371093750e+00,-4.028320312500000000e+00,-5.340576171875000000e-01,7.705688476562500000e-01
7.568840551376342773e+01,1.120486378669738770e+00,-9.284713745117187500e+00,2.877830505371093750e+00,-3.730773925781250000e+00,-6.866455078125000000e-01,1.564025878906250000e+00
7.570564508438110352e+01,1.120486378669738770e+00,-9.296685218811036933e+00,2.877830505371093750e+00,-3.730773925781250000e+00,-5.340576171875000000e-01,1.564025878906250000e+00
7.571685433387756348e+01,9.504980444908142090e-01,-9.296685218811036933e+00,2.777273893356323242e+00,-3.730773925781250000e+00,-6.866455078125000000e-01,7.629394531250000000e-01
7.573018121719360352e+01,9.504980444908142090e-01,-9.356539726257324219e+00,2.777273893356323242e+00,-3.921508789062500000e+00,5.493164062500000000e-01,2.517700195312500000e-01
