# elapsed time, f2_acc_x, f2_acc_y, f2_acc_z, f2_gyro_x, f2_gyro_y, f2_gyro_z
2.753777599334716797e+01,-3.830722719430923462e-02,-7.682992935180664062e+00,5.990292549133300781e+00,2.059936523437500000e-01,-2.365112304687500000e-01,1.525878906250000000e-02
2.755241942405700684e+01,-2.873042039573192596e-02,-7.716511726379393643e+00,5.983109951019287109e+00,3.051757812500000000e-01,-9.155273437500000000e-02,-6.866455078125000000e-02
2.756687450408935547e+01,-6.703764945268630981e-02,-7.721300125122070312e+00,5.983109951019287109e+00,3.585815429687500000e-01,1.525878906250000000e-02,-1.602172851562500000e-01
2.757990264892578125e+01,-2.873042039573192596e-02,-7.716511726379393643e+00,5.983109951019287109e+00,3.585815429687500000e-01,-9.155273437500000000e-02,-1.602172851562500000e-01
2.759384179115295410e+01,-7.661445438861846924e-02,-7.692569732666016513e+00,6.004657745361327237e+00,3.585815429687500000e-01,-2.746582031250000000e-01,-1.602172851562500000e-01
2.760564088821411133e+01,-5.506663769483566284e-02,-7.659050941467285156e+00,6.004657745361327237e+00,3.585815429687500000e-01,-2.746582031250000000e-01,-2.365112304687500000e-01
2.762359595298767090e+01,-5.506663769483566284e-02,-7.659050941467285156e+00,6.004657745361327237e+00,4.425048828125000000e-01,-2.746582031250000000e-01,-2.670288085937500000e-01
2.763597488403320312e+01,-5.506663769483566284e-02,-7.726088523864746094e+00,6.026205539703369141e+00,4.806518554687500000e-01,-2.212524414062500000e-01,-2.670288085937500000e-01
2.764824461936950684e+01,-6.703764945268630981e-02,-7.778761386871337891e+00,6.026205539703369141e+00,4.806518554687500000e-01,-3.051757812500000000e-01,-2.670288085937500000e-01
2.766544151306152344e+01,-6.703764945268630981e-02,-7.726088523864746094e+00,6.026205539703369141e+00,4.882812500000000000e-01,-4.425048828125000000e-01,-1.525878906250000000e-01
2.767631840705871582e+01,-4.788403213024139404e-02,-7.745242595672607422e+00,6.009446144104003906e+00,4.272460937500000000e-01,-4.425048828125000000e-01,-2.899169921875000000e-01
2.769086289405822754e+01,-1.436521019786596298e-02,-7.745242595672607422e+00,6.009446144104003906e+00,2.365112304687500000e-01,-4.425048828125000000e-01,-3.356933593750000000e-01
2.770431327819824219e+01,-1.436521019786596298e-02,-7.745242595672607422e+00,6.009446144104003906e+00,2.365112304687500000e-01,-3.967285156250000000e-01,-3.356933593750000000e-01
2.771744823455810547e+01,-2.394201606512069702e-02,-7.726088523864746094e+00,6.019022941589356357e+00,3.051757812500000000e-01,-1.525878906250000000e-01,-1.220703125000000000e-01
2.773231244087219238e+01,-3.591302409768105247e-02,-7.726088523864746094e+00,6.074089527130127841e+00,3.051757812500000000e-01,-1.525878906250000000e-01,-4.577636718750000000e-02
2.774690508842468262e+01,-3.591302409768105247e-02,-7.726088523864746094e+00,6.019022941589356357e+00,2.288818359375000000e-01,-2.059936523437500000e-01,-4.577636718750000000e-02
2.775896215438842773e+01,-4.309562966227531433e-02,-7.709329128265380859e+00,6.112396717071532315e+00,1.525878906250000000e-01,-2.059936523437500000e-01,-1.525878906250000000e-01
2.777092552185058594e+01,-7.182605098932981491e-03,-7.709329128265380859e+00,5.963956356048583984e+00,2.288818359375000000e-01,-2.059936523437500000e-01,-1.602172851562500000e-01
2.778831219673156738e+01,-2.394201606512069702e-02,-7.718905925750732422e+00,6.088454723358153409e+00,3.356933593750000000e-01,-1.602172851562500000e-01,-1.525878906250000000e-01
2.779910612106323242e+01,-2.394201606512069702e-02,-7.754819393157958984e+00,6.083666324615479404e+00,3.967285156250000000e-01,-1.602172851562500000e-01,-1.373291015625000000e-01
2.781331968307495117e+01,-4.788403213024139404e-02,-7.754819393157958984e+00,6.083666324615479404e+00,3.967285156250000000e-01,-9.155273437500000000e-02,-1.525878906250000000e-02
2.783050966262817383e+01,-4.788403213024139404e-02,-7.752425193786621094e+00,6.016628742218017578e+00,2.822875976562500000e-01,-9.155273437500000000e-02,-1.525878906250000000e-02
2.784139704704284668e+01,-5.027823522686958313e-02,-7.752425193786621094e+00,6.016628742218017578e+00,2.059936523437500000e-01,-6.866455078125000000e-02,-1.525878906250000000e-02
2.785522818565368652e+01,-5.267243832349777222e-02,-7.745242595672607422e+00,6.033388137817382812e+00,2.059936523437500000e-01,-1.144409179687500000e-01,-1.373291015625000000e-01
2.786719942092895508e+01,-8.140285313129425049e-02,-7.745242595672607422e+00,6.033388137817382812e+00,2.899169921875000000e-01,-6.866455078125000000e-02,7.629394531250000000e-03
2.788262319564819336e+01,-7.182604819536209106e-02,-7.697358131408691406e+00,6.016628742218017578e+00,2.899169921875000000e-01,-1.144409179687500000e-01,-1.373291015625000000e-01
2.789454078674316406e+01,-7.182604819536209106e-02,-7.697358131408691406e+00,5.999869346618652344e+00,1.678466796875000000e-01,-6.866455078125000000e-02,-1.373291015625000000e-01
2.790894985198974609e+01,-4.788403213024139404e-02,-7.663839340209960938e+00,6.014234542846679688e+00,1.220703125000000000e-01,-9.918212890625000000e-02,-1.373291015625000000e-01
2.792444753646850586e+01,-4.788403399288654327e-03,-7.709329128265380859e+00,6.014234542846679688e+00,-2.059936523437500000e-01,-9.918212890625000000e-02,8.392333984375000000e-02
2.793664145469665527e+01,2.561795711517333984e-01,-7.582436561584472656e+00,6.313509941101074219e+00,-9.078979492187500000e-01,-1.144409179687500000e-01,3.585815429687500000e-01
2.795149421691894531e+01,2.561795711517333984e-01,-7.625532150268554688e+00,6.330269336700440341e+00,-9.078979492187500000e-01,-4.806518554687500000e-01,1.007080078125000000e+00
2.796284413337707520e+01,3.830722719430923462e-02,-7.625532150268554688e+00,6.313509941101074219e+00,-4.119873046875000000e-01,-4.806518554687500000e-01,1.007080078125000000e+00
2.797758460044860840e+01,3.830722719430923462e-02,-7.682992935180664062e+00,6.050147533416747159e+00,9.841918945312500000e-01,-8.087158203125000000e-01,4.806518554687500000e-01
2.798956966400146484e+01,1.436521019786596298e-02,-7.682992935180664062e+00,5.995080947875977451e+00,9.841918945312500000e-01,-8.087158203125000000e-01,4.272460937500000000e-01
2.800510311126708984e+01,5.027823522686958313e-02,-7.608772754669188565e+00,5.995080947875977451e+00,-2.899169921875000000e-01,-3.356933593750000000e-01,3.662109375000000000e-01
2.802039361000061035e+01,2.537853717803955078e-01,-7.596801757812500000e+00,6.004657745361327237e+00,-2.899169921875000000e-01,-3.356933593750000000e-01,3.662109375000000000e-01
2.803282761573791504e+01,2.537853717803955078e-01,-7.505822181701660156e+00,6.004657745361327237e+00,-3.814697265625000000e-02,-3.967285156250000000e-01,3.662109375000000000e-01
2.804705691337585449e+01,-2.633621916174888611e-02,-7.453149795532227451e+00,5.963956356048583984e+00,1.754760742187500000e-01,-4.577636718750000000e-01,9.155273437500000000e-02
2.805883288383483887e+01,-2.633621916174888611e-02,-7.453149795532227451e+00,5.896918773651122159e+00,2.365112304687500000e-01,-5.798339843750000000e-01,9.155273437500000000e-02
2.807473182678222656e+01,3.112462162971496929e-02,-7.582436561584472656e+00,5.896918773651122159e+00,1.754760742187500000e-01,-6.790161132812500000e-01,3.204345703125000000e-01
2.808609247207641602e+01,9.816227108240127563e-02,-7.620743751525878906e+00,6.021417140960692471e+00,3.051757812500000000e-02,-6.790161132812500000e-01,3.204345703125000000e-01
2.810124611854553223e+01,9.816227108240127563e-02,-7.778761386871337891e+00,6.021417140960692471e+00,3.051757812500000000e-02,-3.738403320312500000e-01,3.051757812500000000e-02
2.811318278312683105e+01,-1.244984865188598494e-01,-7.778761386871337891e+00,5.999869346618652344e+00,1.220703125000000000e-01,-3.738403320312500000e-01,-1.144409179687500000e-01
2.812884283065795898e+01,-1.244984865188598494e-01,-7.757213592529297763e+00,5.992686748504638672e+00,1.220703125000000000e-01,-3.890991210937500000e-01,-1.373291015625000000e-01
2.814314031600952148e+01,-5.985504016280173561e-02,-7.699752330780028409e+00,5.999869346618652344e+00,-7.629394531250000000e-03,-6.866455078125000000e-01,-1.144409179687500000e-01
2.815536069869995117e+01,7.182605098932981491e-03,-7.599195957183837891e+00,6.023811340332031250e+00,-7.629394531250000000e-03,-6.866455078125000000e-01,2.441406250000000000e-01
2.817061853408813477e+01,5.267243832349777222e-02,-7.529764175415039062e+00,6.059724330902099609e+00,-2.288818359375000000e-02,-9.994506835937500000e-01,3.662109375000000000e-01
2.818146491050720215e+01,1.915361285209656039e-01,-7.503427982330322266e+00,6.098031520843505859e+00,6.866455078125000000e-02,-1.335144042968750000e+00,2.441406250000000000e-01
2.819685935974121094e+01,1.675941199064254761e-01,-7.503427982330322266e+00,6.059724330902099609e+00,4.882812500000000000e-01,-1.335144042968750000e+00,3.662109375000000000e-01
2.820996189117431641e+01,1.675941199064254761e-01,-7.568071365356445312e+00,6.057330131530762607e+00,4.882812500000000000e-01,-1.327514648437500000e+00,1.373291015625000000e-01
2.822487545013427734e+01,-6.943184882402420044e-02,-7.723694324493407315e+00,5.932831764221191406e+00,6.103515625000000000e-02,-9.841918945312500000e-01,6.179809570312500000e-01
2.823593807220458984e+01,-6.943184882402420044e-02,-7.757213592529297763e+00,5.892130374908447266e+00,-4.348754882812500000e-01,-2.593994140625000000e-01,1.373291015625000000e-01
2.825373792648315430e+01,-2.633621916174888611e-02,-7.723694324493407315e+00,5.849034786224365234e+00,-4.348754882812500000e-01,-2.593994140625000000e-01,-1.602172851562500000e-01
2.826615667343139648e+01,1.388636976480484009e-01,-7.548917770385742188e+00,5.892130374908447266e+00,-4.043579101562500000e-01,-4.119873046875000000e-01,-1.602172851562500000e-01
2.827844858169555664e+01,1.388636976480484009e-01,-7.319074630737304688e+00,5.956773757934570312e+00,-4.043579101562500000e-01,-4.119873046875000000e-01,1.106262207031250000e+00
2.829580140113830566e+01,1.388636976480484009e-01,-7.319074630737304688e+00,5.956773757934570312e+00,-4.348754882812500000e-01,-1.068115234375000000e-01,1.106262207031250000e+00
2.830660867691040039e+01,1.508347094058990479e-01,-7.515398979187012607e+00,5.937620162963867188e+00,-4.348754882812500000e-01,-1.068115234375000000e-01,1.106262207031250000e+00
2.832076191902160645e+01,1.508347094058990479e-01,-7.575253963470458984e+00,5.937620162963867188e+00,-4.348754882812500000e-01,-3.662109375000000000e-01,1.266479492187500000e+00
2.833442926406860352e+01,-2.585737705230712891e-01,-7.611166954040527344e+00,6.057330131530762607e+00,-9.536743164062500000e-01,-7.019042968750000000e-01,1.266479492187500000e+00
2.834741926193237305e+01,-2.585737705230712891e-01,-7.582436561584472656e+00,6.057330131530762607e+00,-1.182556152343750000e+00,-7.171630859375000000e-01,2.082824707031250000e+00
2.835938930511474609e+01,-1.077390760183334351e-01,-7.582436561584472656e+00,5.784391403198242188e+00,-1.182556152343750000e+00,-7.171630859375000000e-01,2.136230468750000000e+00
2.837640070915222168e+01,-5.506663769483566284e-02,-7.522581577301025391e+00,5.784391403198242188e+00,-5.264282226562500000e-01,-7.171630859375000000e-01,2.357482910156250000e+00
2.838958621025085449e+01,-5.506663769483566284e-02,-7.522581577301025391e+00,6.069301128387451172e+00,-5.264282226562500000e-01,-2.182006835937500000e+00,2.838134765625000000e+00
2.840160608291625977e+01,-6.224924325942992470e-02,-7.560888767242432529e+00,6.069301128387451172e+00,-2.700805664062500000e+00,-3.852844238281250000e+00,4.203796386718750000e+00
2.841846275329589844e+01,-6.224924325942992470e-02,-7.627926349639892578e+00,5.930437564849853516e+00,-2.700805664062500000e+00,-2.182006835937500000e+00,2.838134765625000000e+00
2.842909169197082520e+01,-3.040636181831359863e-01,-8.987833023071289062e+00,4.230554103851318359e+00,-3.753662109375000000e+00,-3.768920898437500000e+00,3.479003906250000000e+00
2.844298815727233887e+01,4.022258818149567206e-01,-8.987833023071289062e+00,4.230554103851318359e+00,-7.034301757812500000e+00,-2.151489257812500000e+00,3.479003906250000000e+00
2.845734906196594238e+01,-1.177947163581847922e+00,-6.916848659515380859e+00,7.551311969757080078e+00,-7.034301757812500000e+00,-2.998352050781250000e+00,3.479003906250000000e+00
2.847057986259460449e+01,-5.219359397888183594e-01,-6.916848659515380859e+00,7.551311969757080078e+00,5.950927734375000000e-01,7.324218750000000000e-01,3.921508789062500000e+00
2.848445224761962891e+01,-5.219359397888183594e-01,-7.745242595672607422e+00,5.214570999145507812e+00,5.950927734375000000e-01,-2.998352050781250000e+00,1.518249511718750000e+00
2.849636530876159668e+01,-9.097966551780699296e-02,-7.745242595672607422e+00,5.214570999145507812e+00,-2.235412597656250000e+00,-3.562927246093750000e+00,3.921508789062500000e+00
2.851213932037353516e+01,-9.097966551780699296e-02,-7.745242595672607422e+00,6.141127109527587891e+00,-2.235412597656250000e+00,-3.562927246093750000e+00,3.890991210937500000e-01
2.852425336837768555e+01,-3.615244626998900812e-01,-7.639897346496582031e+00,6.141127109527587891e+00,-2.235412597656250000e+00,-1.892089843750000000e+00,1.495361328125000000e+00
2.853872203826904297e+01,-3.615244626998900812e-01,-7.671021938323974609e+00,5.913678169250487393e+00,-1.609802246093750000e+00,-1.892089843750000000e+00,1.495361328125000000e+00
2.855086731910705566e+01,-3.615244626998900812e-01,-7.671021938323974609e+00,5.870582580566406250e+00,-1.655578613281250000e+00,-1.892089843750000000e+00,2.555847167968750000e+00
2.856664180755615234e+01,-2.992752194404602051e-01,-7.671021938323974609e+00,5.779603004455566406e+00,-1.655578613281250000e+00,-5.462646484375000000e+00,4.348754882812500000e+00
2.858135628700256348e+01,-4.596867263317108154e-01,-7.762001991271972656e+00,5.755661010742188388e+00,-3.089904785156250000e+00,-7.514953613281250000e+00,4.737854003906250000e+00
2.859263849258422852e+01,-1.244984865188598494e-01,-7.551311969757080078e+00,5.755661010742188388e+00,-3.089904785156250000e+00,-8.049011230468750000e+00,1.202392578125000000e+01
2.860837292671203613e+01,-1.244984865188598494e-01,-7.359776020050048828e+00,5.951985359191895419e+00,-2.906799316406250000e+00,-1.482391357421875000e+01,1.493835449218750000e+01
2.862067198753356934e+01,-1.244984865188598494e-01,-7.307103633880615234e+00,6.071695327758789062e+00,-2.906799316406250000e+00,-8.049011230468750000e+00,1.666259765625000000e+01
2.863482284545898438e+01,2.226607501506805142e-01,-7.187393188476562500e+00,6.428431510925292969e+00,-9.536743164062500000e+00,-2.952575683593750000e+00,1.884460449218750000e+01
2.864702916145324707e+01,2.226607501506805142e-01,-6.801927089691162109e+00,7.587224960327147549e+00,-4.003143310546875000e+01,-2.578735351562500000e+00,1.884460449218750000e+01
2.866198539733886719e+01,2.226607501506805142e-01,-6.801927089691162109e+00,7.587224960327147549e+00,-5.619812011718750000e+01,2.922821044921875000e+01,4.127502441406250000e+00
2.867436933517456055e+01,-5.075707435607910156e-01,-9.368511199951171875e+00,2.887407302856445312e+00,-5.619812011718750000e+01,2.922821044921875000e+01,4.127502441406250000e+00
2.868903708457946777e+01,-5.291185379028320312e-01,-9.368511199951171875e+00,2.887407302856445312e+00,-2.185821533203125000e+01,-4.959106445312500000e-01,8.331298828125000000e+00
2.870114088058471680e+01,-1.084573388099670410e+00,-7.826645374298096591e+00,5.559336185455322266e+00,-6.507873535156250000e+00,-5.569458007812500000e+00,8.331298828125000000e+00
2.871568083763122559e+01,-1.084573388099670410e+00,-7.381323814392089844e+00,5.963956356048583984e+00,-6.507873535156250000e+00,-5.569458007812500000e+00,4.768371582031250000e+00
2.873118424415588379e+01,-3.208230137825012207e-01,-7.826645374298096591e+00,5.963956356048583984e+00,-2.450561523437500000e+01,6.820678710937500000e+00,2.082824707031250000e+00
2.874343013763427734e+01,7.805097699165344238e-01,-8.140285491943361151e+00,5.458779811859130859e+00,-2.660369873046875000e+01,6.820678710937500000e+00,2.082824707031250000e+00
2.875873637199401855e+01,7.805097699165344238e-01,-8.140285491943361151e+00,5.458779811859130859e+00,-2.660369873046875000e+01,-7.583618164062500000e+00,2.190399169921875000e+01
2.877017021179199219e+01,-9.050082564353943981e-01,-8.075642585754394531e+00,5.568912982940673828e+00,-2.529144287109375000e+01,-7.583618164062500000e+00,2.190399169921875000e+01
2.878478693962097168e+01,-9.050082564353943981e-01,-7.788338184356689453e+00,5.568912982940673828e+00,-2.529144287109375000e+01,-2.136230468750000000e+00,9.918212890625000000e+00
2.879792213439941406e+01,-4.477156996726989746e-01,-7.788338184356689453e+00,5.154716014862060547e+00,-2.529144287109375000e+01,6.179809570312500000e-01,8.239746093750000000e+00
2.881260514259338379e+01,-4.477156996726989746e-01,-8.003816604614257812e+00,5.118803024291992188e+00,-2.410125732421875000e+01,6.179809570312500000e-01,8.239746093750000000e+00
2.882380270957946777e+01,-5.626373887062072754e-01,-8.003816604614257812e+00,5.154716014862060547e+00,-2.138519287109375000e+01,-6.309509277343750000e+00,1.378631591796875000e+01
2.883985805511474609e+01,-6.057330369949340820e-01,-7.884106159210205078e+00,5.090072631835937500e+00,-2.138519287109375000e+01,-6.309509277343750000e+00,1.378631591796875000e+01
2.885406684875488281e+01,-7.757213115692138672e-01,-7.884106159210205078e+00,5.525817394256591797e+00,-2.257537841796875000e+01,-4.776000976562500000e+00,1.329803466796875000e+01
2.886612820625305176e+01,-7.757213115692138672e-01,-7.929595947265625000e+00,5.346252441406250000e+00,-2.780151367187500000e+01,-4.776000976562500000e+00,1.329803466796875000e+01
2.888322472572326660e+01,-6.727706789970397949e-01,-8.066065788269042969e+00,5.449203014373778409e+00,-3.266906738281250000e+01,-5.409240722656250000e+00,1.676940917968750000e+01
2.889427185058593750e+01,-3.040636181831359863e-01,-8.645462036132812500e+00,5.346252441406250000e+00,-3.266906738281250000e+01,-1.010131835937500000e+01,1.800537109375000000e+01
2.890848255157470703e+01,-6.727706789970397949e-01,-8.066065788269042969e+00,5.449203014373778409e+00,-2.935791015625000000e+01,-1.010131835937500000e+01,1.800537109375000000e+01
2.892251038551330566e+01,-1.640028119087219238e+00,-7.007828235626221591e+00,5.327098846435546875e+00,-2.935791015625000000e+01,-5.088806152343750000e+00,1.545715332031250000e+01
2.893577623367309570e+01,-1.640028119087219238e+00,-7.007828235626221591e+00,5.327098846435546875e+00,-3.659057617187500000e+01,7.171630859375000000e+00,1.453399658203125000e+01
2.895007658004760742e+01,1.161187767982482910e+00,-7.007828235626221591e+00,5.300762653350830078e+00,-6.220245361328125000e+01,7.171630859375000000e+00,1.266479492187500000e+01
2.896452641487121582e+01,1.161187767982482910e+00,-9.071630477905273438e+00,5.233724594116210938e+00,-6.220245361328125000e+01,4.920959472656250000e+00,1.266479492187500000e+01
2.897648191452026367e+01,3.423708379268646240e-01,-9.071630477905273438e+00,1.941697597503661887e+00,-6.108093261718750000e+01,4.920959472656250000e+00,4.646301269531250000e+00
2.898877549171447754e+01,-3.303998410701752264e-01,-9.071630477905273438e+00,1.941697597503661887e+00,-3.956604003906250000e+01,6.370544433593750000e+00,-1.922607421875000000e+00
2.900628566741943359e+01,3.423708379268646240e-01,-9.114726066589355469e+00,3.919308185577392578e+00,-3.956604003906250000e+01,6.370544433593750000e+00,-1.922607421875000000e+00
2.901717853546142578e+01,-3.303998410701752264e-01,-8.813055992126464844e+00,3.919308185577392578e+00,-3.722381591796875000e+01,7.820129394531250000e+00,-1.922607421875000000e+00
2.903142380714416504e+01,9.313444495201111950e-01,-9.114726066589355469e+00,3.919308185577392578e+00,-2.986145019531250000e+01,6.225585937500000000e+00,-1.833343505859375000e+01
2.904535174369812012e+01,1.297657251358032227e+00,-8.813055992126464844e+00,3.770867586135863814e+00,-2.986145019531250000e+01,6.225585937500000000e+00,-1.833343505859375000e+01
2.905749869346618652e+01,1.297657251358032227e+00,-8.755595207214355469e+00,3.770867586135863814e+00,-2.986145019531250000e+01,-3.585815429687500000e-01,1.489257812500000000e+01
2.907313013076782227e+01,-6.033388376235961914e-01,-8.755595207214355469e+00,3.770867586135863814e+00,-2.988433837890625000e+01,-3.639221191406250000e+00,1.489257812500000000e+01
2.908750033378601074e+01,-6.033388376235961914e-01,-9.378087997436523438e+00,3.770867586135863814e+00,-3.506469726562500000e+01,-3.639221191406250000e+00,1.106262207031250000e+01
2.909950780868530273e+01,-4.165910780429840088e-01,-9.866504669189453125e+00,3.026270866394042969e+00,-3.896331787109375000e+01,-3.639221191406250000e+00,-5.027770996093750000e+00
2.911165046691894531e+01,-4.165910780429840088e-01,-9.378087997436523438e+00,1.405396342277526855e+00,-3.896331787109375000e+01,-4.997253417968750000e+00,-5.416870117187500000e+00
2.912703061103820801e+01,-4.165910780429840088e-01,-7.113173007965087891e+00,-5.363011956214904785e-01,-1.930236816406250000e+00,-1.186370849609375000e+01,-5.668640136718750000e+00
2.913945221900939941e+01,8.401253700256347656e+00,-7.113173007965087891e+00,-3.122039079666137695e+00,-1.930236816406250000e+00,-2.491760253906250000e+01,-5.668640136718750000e+00
2.915371942520141602e+01,8.401253700256347656e+00,-9.253589630126953125e+00,-5.363011956214904785e-01,-1.118469238281250000e+01,-2.491760253906250000e+01,-5.668640136718750000e+00
2.916948890686035156e+01,-4.565742492675781250e+00,-9.253589630126953125e+00,5.602431893348693848e-01,-1.118469238281250000e+01,-2.491760253906250000e+01,2.542877197265625000e+01
2.918166184425354004e+01,-4.565742492675781250e+00,-9.976638793945312500e+00,5.602431893348693848e-01,-8.499145507812500000e+00,2.018737792968750000e+01,-4.292297363281250000e+01
2.919588971138000488e+01,-4.209006309509276456e+00,-9.976638793945312500e+00,-2.044648170471191406e+00,8.972930908203125000e+01,2.018737792968750000e+01,-4.430389404296875000e+01
2.920778560638427734e+01,6.394912719726562500e+00,-1.286883354187011541e+01,-9.931148529052734375e+00,2.239303588867187500e+02,2.018737792968750000e+01,-4.430389404296875000e+01
2.922352147102355957e+01,6.394912719726562500e+00,-1.410663604736327947e+01,-1.961330032348632812e+01,2.499923706054687500e+02,-9.943389892578123579e+01,-4.789733886718750000e+01
2.923616766929626465e+01,-1.663012504577636719e+01,-1.410663604736327947e+01,-1.961330032348632812e+01,2.499923706054687500e+02,-9.943389892578123579e+01,-4.789733886718750000e+01
2.925041151046752930e+01,-1.663012504577636719e+01,-1.410663604736327947e+01,6.636726856231689453e+00,2.499923706054687500e+02,1.190109252929687642e+02,-7.207489013671875000e+01
2.926464462280273438e+01,-3.718195199966431108e+00,-1.204283475875854492e+00,1.795411872863769531e+01,-4.348754882812500000e+00,1.190109252929687642e+02,-7.207489013671875000e+01
2.927654004096984863e+01,1.063025593757629395e+00,-1.347456741333007812e+01,6.636726856231689453e+00,-3.385925292968750000e+01,6.873321533203125000e+01,-2.227020263671875000e+01
2.929177546501159668e+01,-3.718195199966431108e+00,-7.173027992248535156e+00,8.427589416503906250e+00,-4.348754882812500000e+00,6.448364257812500000e+01,3.678894042968750000e+01
2.930349063873291016e+01,-7.426813602447509766e+00,-1.064701461791992188e+01,2.882618904113769087e+00,9.941101074218750000e+00,1.261138916015625000e+01,3.678894042968750000e+01
2.931897735595703125e+01,-7.426813602447509766e+00,-8.813055992126464844e+00,4.393360137939453125e+00,1.209259033203125000e+01,1.261138916015625000e+01,-3.218841552734375000e+01
2.933478927612304688e+01,5.609614372253417969e+00,-8.813055992126464844e+00,4.393360137939453125e+00,1.815032958984375000e+01,1.261138916015625000e+01,-3.218841552734375000e+01
2.934598779678344727e+01,5.609614372253417969e+00,-5.963956356048583984e+00,7.991845130920410156e+00,1.815032958984375000e+01,-2.540588378906250000e+00,7.339477539062500000e+00
2.936157798767089844e+01,-2.662352323532104492e+00,-5.963956356048583984e+00,7.991845130920410156e+00,-2.260589599609375000e+01,-2.540588378906250000e+00,7.339477539062500000e+00
2.937261509895324707e+01,-2.662352323532104492e+00,-1.056561183929443359e+01,4.616020679473876953e+00,-2.260589599609375000e+01,-2.548217773437500000e+00,-1.533508300781250000e+00
2.938866400718688965e+01,-2.370259612798691073e-01,-1.056561183929443359e+01,4.616020679473876953e+00,1.417541503906250000e+01,-2.548217773437500000e+00,-1.533508300781250000e+00
2.940326237678527832e+01,3.854664564132689319e-01,-6.902483463287353516e+00,7.592013359069824219e+00,1.417541503906250000e+01,-2.548217773437500000e+00,1.716613769531250000e+00
2.941574478149414062e+01,3.854664564132689319e-01,-6.880935668945312500e+00,7.592013359069824219e+00,2.967834472656250000e+00,-2.143859863281250000e+00,1.716613769531250000e+00
2.943075942993164062e+01,3.854664564132689319e-01,-6.880935668945312500e+00,7.132326602935791016e+00,-8.255004882812500000e+00,5.073547363281250000e+00,9.613037109375000000e-01
2.944285130500793457e+01,8.858545869588851929e-02,-9.569623947143556464e+00,4.383783340454102451e+00,-8.255004882812500000e+00,5.073547363281250000e+00,9.613037109375000000e-01
2.945724821090698242e+01,-8.714894056320190430e-01,-9.569623947143556464e+00,4.383783340454102451e+00,7.614135742187500000e+00,6.103515625000000000e-01,9.613037109375000000e-01
2.947281217575073242e+01,-8.714894056320190430e-01,-7.680598735809326172e+00,6.816292285919189453e+00,7.614135742187500000e+00,6.103515625000000000e-01,-3.784179687500000000e+00
2.948408365249633789e+01,1.675941109657287598e+00,-7.352593421936035156e+00,6.816292285919189453e+00,8.239746093750000000e-01,1.228332519531250000e+00,-3.784179687500000000e+00
2.949840164184570312e+01,1.675941109657287598e+00,-7.352593421936035156e+00,6.766014099121093750e+00,-4.325866699218750000e+00,1.228332519531250000e+00,2.517700195312500000e+00
2.951347565650939941e+01,-8.164227604866027832e-01,-8.846574783325195312e+00,5.353435039520263672e+00,-4.325866699218750000e+00,2.090454101562500000e+00,2.517700195312500000e+00
2.952651071548461914e+01,-8.164227604866027832e-01,-8.846574783325195312e+00,5.353435039520263672e+00,3.677368164062500000e+00,2.090454101562500000e+00,-4.402160644531250000e+00
2.954081296920776367e+01,2.489969730377196988e-01,-7.402871608734130859e+00,6.533776283264160156e+00,3.677368164062500000e+00,2.090454101562500000e+00,-4.402160644531250000e+00
2.955556178092956543e+01,2.489969730377196988e-01,-7.402871608734130859e+00,6.543353080749512607e+00,5.416870117187500000e-01,2.700805664062500000e+00,3.280639648437500000e-01
2.956755495071411133e+01,-1.556231081485748569e-01,-7.534552574157714844e+00,6.543353080749512607e+00,-1.884460449218750000e+00,1.701354980468750000e+00,3.280639648437500000e-01
2.957948112487792969e+01,-1.556231081485748569e-01,-8.279149055480957031e+00,5.470750808715820312e+00,-1.884460449218750000e+00,1.701354980468750000e+00,3.280639648437500000e-01
2.959753441810607910e+01,-4.548983275890350342e-02,-8.279149055480957031e+00,5.470750808715820312e+00,2.037048339843750000e+00,1.701354980468750000e+00,-1.266479492187500000e+00
2.960861587524414062e+01,-4.548983275890350342e-02,-7.182604789733887607e+00,7.084442615509032315e+00,2.037048339843750000e+00,1.464843750000000000e+00,-1.266479492187500000e+00
2.962169170379638672e+01,3.854664564132689319e-01,-7.182604789733887607e+00,7.084442615509032315e+00,-2.159118652343750000e+00,1.464843750000000000e+00,-1.266479492187500000e+00
2.963640689849853516e+01,-2.896983921527862549e-01,-8.350975036621093750e+00,5.501875400543212891e+00,-2.159118652343750000e+00,-1.525878906250000000e-01,-1.602172851562500000e+00
2.964980673789978027e+01,-3.591302409768105247e-02,-8.350975036621093750e+00,5.501875400543212891e+00,2.014160156250000000e+00,-2.578735351562500000e+00,-1.602172851562500000e+00
2.966409969329833984e+01,-3.591302409768105247e-02,-8.243236541748048651e+00,6.605602264404297763e+00,2.014160156250000000e+00,-2.456665039062500000e+00,-1.602172851562500000e+00
2.967789173126220703e+01,3.998316824436187744e-01,-7.548917770385742188e+00,6.605602264404297763e+00,9.765625000000000000e-01,-2.456665039062500000e+00,-1.281738281250000000e+00
2.969099020957946777e+01,3.998316824436187744e-01,-7.548917770385742188e+00,6.303933143615722656e+00,-1.495361328125000000e+00,2.899169921875000000e-01,-1.243591308593750000e+00
2.970282506942749023e+01,4.572925269603729248e-01,-7.819462776184082031e+00,5.920860767364502841e+00,-1.495361328125000000e+00,1.350402832031250000e+00,-1.243591308593750000e+00
2.972046589851379395e+01,4.572925269603729248e-01,-7.819462776184082031e+00,5.920860767364502841e+00,2.265930175781250000e+00,8.544921875000000000e-01,-1.243591308593750000e+00
2.973134684562683105e+01,4.572925269603729248e-01,-7.374141216278076172e+00,6.337451934814452237e+00,2.265930175781250000e+00,8.544921875000000000e-01,7.400512695312500000e-01
2.974559307098388672e+01,-4.213795065879821777e-01,-7.374141216278076172e+00,6.337451934814452237e+00,-1.228332519531250000e+00,-3.128051757812500000e-01,7.400512695312500000e-01
2.976253628730773926e+01,-4.213795065879821777e-01,-8.183381080627441406e+00,5.889736175537108487e+00,-1.228332519531250000e+00,-4.348754882812500000e-01,6.179809570312500000e-01
2.977365183830261230e+01,-1.891419291496276855e-01,-8.183381080627441406e+00,5.889736175537108487e+00,5.187988281250000000e-01,-5.035400390625000000e-01,-2.822875976562500000e-01
2.978693580627441406e+01,1.484405100345611572e-01,-7.405265808105468750e+00,6.435614109039307529e+00,5.798339843750000000e-01,-5.035400390625000000e-01,-5.569458007812500000e-01
2.979902386665344238e+01,1.484405100345611572e-01,-7.405265808105468750e+00,6.435614109039307529e+00,5.798339843750000000e-01,9.918212890625000000e-02,-5.569458007812500000e-01
2.981433463096618652e+01,1.484405100345611572e-01,-7.469909191131592685e+00,6.196193695068358487e+00,-5.264282226562500000e-01,9.918212890625000000e-02,7.400512695312500000e-01
2.982942438125610352e+01,-2.130839526653289517e-01,-7.984662532806396484e+00,6.196193695068358487e+00,-5.264282226562500000e-01,-8.010864257812500000e-01,7.400512695312500000e-01
2.984128022193908691e+01,-2.130839526653289517e-01,-8.022970199584960938e+00,6.526593685150146484e+00,8.697509765625000000e-01,-8.010864257812500000e-01,-4.196166992187500000e-01
2.985503911972045898e+01,1.532289087772369385e-01,-8.080430984497070312e+00,6.540958881378173828e+00,8.697509765625000000e-01,8.773803710937500000e-01,-4.196166992187500000e-01
2.986720609664916992e+01,1.532289087772369385e-01,-8.022970199584960938e+00,6.607996463775634766e+00,6.561279296875000000e-01,8.773803710937500000e-01,-8.392333984375000000e-02
2.988257765769958496e+01,-1.580173075199127197e-01,-8.018181800842285156e+00,6.607996463775634766e+00,-1.525878906250000000e-01,6.027221679687500000e-01,-8.392333984375000000e-02
2.989720344543457031e+01,-1.580173075199127197e-01,-7.750030994415282315e+00,5.889736175537108487e+00,-1.525878906250000000e-01,1.831054687500000000e-01,-1.968383789062500000e+00
2.991043472290039062e+01,6.224924325942992470e-02,-7.532158374786377841e+00,5.889736175537108487e+00,1.251220703125000000e+00,1.831054687500000000e-01,-1.968383789062500000e+00
2.992446184158325195e+01,6.224924325942992470e-02,-7.268796443939208984e+00,6.083666324615479404e+00,1.251220703125000000e+00,-1.602172851562500000e-01,3.738403320312500000e-01
2.993734169006347656e+01,6.224924325942992470e-02,-7.268796443939208984e+00,6.083666324615479404e+00,-1.091003417968750000e+00,-1.602172851562500000e-01,3.738403320312500000e-01
2.995194363594055176e+01,5.985504016280173561e-02,-7.551311969757080078e+00,6.019022941589356357e+00,-1.091003417968750000e+00,-1.602172851562500000e-01,3.738403320312500000e-01
2.996443271636962891e+01,5.985504016280173561e-02,-7.778761386871337891e+00,6.019022941589356357e+00,1.007080078125000000e+00,-1.678466796875000000e-01,1.220703125000000000e+00
2.997906112670898438e+01,5.985504016280173561e-02,-7.785943984985352451e+00,6.521805286407471591e+00,1.007080078125000000e+00,-1.678466796875000000e-01,1.220703125000000000e+00
2.999100136756896973e+01,6.703764945268630981e-02,-7.967903137207031250e+00,6.521805286407471591e+00,-5.035400390625000000e-01,-6.866455078125000000e-02,3.128051757812500000e-01
3.000999474525451660e+01,6.703764945268630981e-02,-7.967903137207031250e+00,6.469132900238037109e+00,-5.035400390625000000e-01,-6.866455078125000000e-02,1.068115234375000000e-01
3.002237272262573242e+01,-8.379705995321273804e-02,-7.893682956695557529e+00,6.361393928527832031e+00,6.942749023437500000e-01,-6.866455078125000000e-02,1.068115234375000000e-01
3.003316879272460938e+01,-8.379705995321273804e-02,-7.448361396789550781e+00,6.179434299468994141e+00,1.068115234375000000e+00,-5.798339843750000000e-01,8.392333984375000000e-02
3.004768705368041992e+01,-4.309562966227531433e-02,-7.448361396789550781e+00,6.133944511413574219e+00,6.942749023437500000e-01,-1.022338867187500000e+00,8.392333984375000000e-02
3.006115770339965820e+01,-4.309562966227531433e-02,-7.448361396789550781e+00,6.133944511413574219e+00,9.155273437500000000e-02,-1.022338867187500000e+00,8.392333984375000000e-02
3.007567405700683594e+01,-4.309562966227531433e-02,-7.422025203704833984e+00,6.143521308898925781e+00,9.155273437500000000e-02,1.480102539062500000e+00,-1.739501953125000000e+00
3.009013271331787109e+01,1.388636976480484009e-01,-7.422025203704833984e+00,6.143521308898925781e+00,1.296997070312500000e-01,1.480102539062500000e+00,-1.739501953125000000e+00
3.010433125495910645e+01,1.388636976480484009e-01,-7.771578788757324219e+00,6.143521308898925781e+00,1.296997070312500000e-01,9.460449218750000000e-01,-2.975463867187500000e-01
3.011668562889099121e+01,-8.140285313129425049e-02,-7.886500358581542969e+00,6.234500885009766513e+00,-4.653930664062500000e-01,-2.212524414062500000e-01,-2.975463867187500000e-01
3.012851333618164062e+01,-8.140285313129425049e-02,-7.886500358581542969e+00,6.234500885009766513e+00,-4.653930664062500000e-01,-2.212524414062500000e-01,-6.179809570312500000e-01
3.014650940895080566e+01,-8.140285313129425049e-02,-7.613561153411865234e+00,6.220135688781737393e+00,1.251220703125000000e+00,-6.103515625000000000e-01,-6.179809570312500000e-01
3.015743565559387207e+01,-3.591302409768105247e-02,-7.613561153411865234e+00,5.892130374908447266e+00,1.251220703125000000e+00,-1.335144042968750000e+00,-1.144409179687500000e-01
3.017066907882690430e+01,-3.591302409768105247e-02,-7.685387134552002841e+00,5.892130374908447266e+00,-2.288818359375000000e-02,-1.335144042968750000e+00,2.670288085937500000e-01
3.018856239318847656e+01,-3.591302409768105247e-02,-7.685387134552002841e+00,6.150703907012940341e+00,-2.288818359375000000e-02,-2.441406250000000000e-01,2.670288085937500000e-01
3.019975829124450684e+01,-8.140285313129425049e-02,-7.654262542724608487e+00,6.169857501983642578e+00,4.348754882812500000e-01,-2.441406250000000000e-01,-3.814697265625000000e-01
3.021313619613647461e+01,-8.140285313129425049e-02,-7.654262542724608487e+00,6.306327342987060547e+00,4.348754882812500000e-01,-2.441406250000000000e-01,-5.493164062500000000e-01
3.022742056846618652e+01,-3.591302409768105247e-02,-7.647079944610596591e+00,6.306327342987060547e+00,5.645751953125000000e-01,-3.051757812500000000e-02,-5.493164062500000000e-01
3.023955869674682617e+01,-3.591302409768105247e-02,-7.635108947753906250e+00,6.172251701354980469e+00,2.365112304687500000e-01,3.509521484375000000e-01,-5.493164062500000000e-01
3.025151824951171875e+01,-3.591302409768105247e-02,-7.467514991760253906e+00,6.098031520843505859e+00,3.585815429687500000e-01,-3.051757812500000000e-02,1.373291015625000000e-01
3.026937532424926758e+01,6.703764945268630981e-02,-7.467514991760253906e+00,5.861005783081054688e+00,3.585815429687500000e-01,-1.136779785156250000e+00,2.288818359375000000e-01
3.028249979019165039e+01,6.703764945268630981e-02,-7.594407558441162109e+00,5.861005783081054688e+00,3.585815429687500000e-01,-1.136779785156250000e+00,2.288818359375000000e-01
3.029431819915771484e+01,-3.351882472634315491e-02,-7.613561153411865234e+00,6.251260757446289062e+00,1.373291015625000000e-01,-3.204345703125000000e-01,-2.212524414062500000e-01
3.031148695945739746e+01,-3.351882472634315491e-02,-7.776367187500000000e+00,6.251260757446289062e+00,1.373291015625000000e-01,-3.204345703125000000e-01,-2.212524414062500000e-01
3.032231426239013672e+01,-3.351882472634315491e-02,-7.776367187500000000e+00,6.016628742218017578e+00,1.373291015625000000e-01,-3.204345703125000000e-01,1.449584960937500000e-01
3.033655786514282227e+01,-1.723825186491012573e-01,-7.802703380584717685e+00,6.016628742218017578e+00,-1.449584960937500000e-01,-4.959106445312500000e-01,4.730224609375000000e-01
3.034768176078796387e+01,-1.723825186491012573e-01,-7.704540729522705078e+00,6.327875137329102451e+00,-1.449584960937500000e-01,-1.907348632812500000e-01,4.730224609375000000e-01
3.036318993568420410e+01,-6.943184882402420044e-02,-7.508216381072997159e+00,6.327875137329102451e+00,6.103515625000000000e-02,1.907348632812500000e-01,7.629394531250000000e-03
3.037511396408081055e+01,-6.943184882402420044e-02,-7.508216381072997159e+00,5.983109951019287109e+00,3.128051757812500000e-01,1.907348632812500000e-01,7.629394531250000000e-03
3.039030241966247559e+01,-6.943184882402420044e-02,-7.563282966613769531e+00,5.983109951019287109e+00,3.128051757812500000e-01,1.907348632812500000e-01,7.629394531250000000e-03
3.040509009361267090e+01,-1.268926858901977539e-01,-7.611166954040527344e+00,6.155492305755615234e+00,2.288818359375000000e-01,-5.416870117187500000e-01,1.831054687500000000e-01
3.041699147224426270e+01,7.661445438861846924e-02,-7.697358131408691406e+00,6.327875137329102451e+00,1.373291015625000000e-01,2.670288085937500000e-01,0.000000000000000000e+00
3.043204426765441895e+01,4.548983275890350342e-02,-7.783549785614013672e+00,6.327875137329102451e+00,2.288818359375000000e-01,4.043579101562500000e-01,5.340576171875000000e-02
3.044404888153076172e+01,4.548983275890350342e-02,-7.783549785614013672e+00,6.327875137329102451e+00,4.272460937500000000e-01,7.095336914062500000e-01,0.000000000000000000e+00
3.045966291427612305e+01,-6.943184882402420044e-02,-7.548917770385742188e+00,6.275202751159667969e+00,4.272460937500000000e-01,4.043579101562500000e-01,-4.348754882812500000e-01
3.047400808334350586e+01,-6.943184882402420044e-02,-7.548917770385742188e+00,6.275202751159667969e+00,1.296997070312500000e-01,2.746582031250000000e-01,-4.348754882812500000e-01
3.048658514022827148e+01,-8.619125932455062866e-02,-7.606378555297852451e+00,5.973533153533936435e+00,1.296997070312500000e-01,-2.136230468750000000e-01,1.373291015625000000e-01
3.050118541717529297e+01,-8.619125932455062866e-02,-7.651868343353270596e+00,5.973533153533936435e+00,4.272460937500000000e-01,-4.653930664062500000e-01,1.373291015625000000e-01
3.051340436935424805e+01,-8.619125932455062866e-02,-7.706934928894042969e+00,6.224924087524414062e+00,4.730224609375000000e-01,-4.653930664062500000e-01,-1.068115234375000000e-01
3.052844142913818359e+01,1.197100803256034851e-02,-7.706934928894042969e+00,6.332663536071777344e+00,4.730224609375000000e-01,-4.653930664062500000e-01,-1.419067382812500000e+00
3.053981399536132812e+01,3.088520169258117676e-01,-7.714117527008057529e+00,6.332663536071777344e+00,6.332397460937500000e-01,-1.235961914062500000e+00,-1.419067382812500000e+00
3.055493259429931641e+01,3.088520169258117676e-01,-7.714117527008057529e+00,6.100425720214843750e+00,2.746582031250000000e-01,-1.296997070312500000e-01,-1.983642578125000000e-01
