# elapsed time, f1_acc_x, f1_acc_y, f1_acc_z, f1_gyro_x, f1_gyro_y, f1_gyro_z
3.354438519477844238e+01,4.378994941711426669e+00,-8.463502883911132812e+00,-4.716577053070068359e+00,-3.890991210937500000e+00,-2.975463867187500000e-01,8.316040039062500000e-01
3.356004548072814941e+01,4.378994941711426669e+00,-8.389282226562500000e+00,-4.687846660614013672e+00,-3.890991210937500000e+00,-2.975463867187500000e-01,9.460449218750000000e-01
3.357162666320800781e+01,4.378994941711426669e+00,-8.389282226562500000e+00,-4.714182853698730469e+00,-3.776550292968750000e+00,-2.975463867187500000e-01,8.316040039062500000e-01
3.358696508407592773e+01,4.390965938568115234e+00,-8.389282226562500000e+00,-4.692635059356689453e+00,-3.715515136718750000e+00,-3.814697265625000000e-01,6.866455078125000000e-01
3.359844565391540527e+01,4.426878929138183594e+00,-8.449137687683105469e+00,-4.709394454956054688e+00,-3.776550292968750000e+00,-2.975463867187500000e-01,6.866455078125000000e-01
3.361402583122253418e+01,4.390965938568115234e+00,-8.331821441650388849e+00,-4.692635059356689453e+00,-3.845214843750000000e+00,-4.119873046875000000e-01,6.484985351562500000e-01
3.362891244888305664e+01,4.345476150512694424e+00,-8.453926086425781250e+00,-4.709394454956054688e+00,-3.845214843750000000e+00,-3.204345703125000000e-01,7.095336914062500000e-01
3.364317655563354492e+01,4.345476150512694424e+00,-8.499416351318361151e+00,-4.728548049926757812e+00,-3.860473632812500000e+00,-3.204345703125000000e-01,8.163452148437500000e-01
3.365562725067138672e+01,4.414907932281494141e+00,-8.499416351318361151e+00,-4.788403511047363281e+00,-3.715515136718750000e+00,-2.365112304687500000e-01,8.163452148437500000e-01
3.366824841499328613e+01,4.414907932281494141e+00,-8.427589416503906250e+00,-4.788403511047363281e+00,-3.829956054687500000e+00,-2.365112304687500000e-01,8.163452148437500000e-01
3.368517684936523438e+01,4.378994941711426669e+00,-8.382100105285644531e+00,-4.788403511047363281e+00,-3.715515136718750000e+00,-2.288818359375000000e-01,8.621215820312500000e-01
3.369705033302307129e+01,4.378994941711426669e+00,-8.305485725402832031e+00,-4.742913722991943359e+00,-3.723144531250000000e+00,-3.738403320312500000e-01,8.621215820312500000e-01
3.371010613441467285e+01,4.383783340454102451e+00,-8.382100105285644531e+00,-4.718971252441406250e+00,-3.723144531250000000e+00,-3.738403320312500000e-01,9.765625000000000000e-01
3.372705841064453125e+01,4.393360137939453125e+00,-8.444349288940429688e+00,-4.699817657470703125e+00,-3.776550292968750000e+00,-3.738403320312500000e-01,8.468627929687500000e-01
3.373722505569458008e+01,4.393360137939453125e+00,-8.444349288940429688e+00,-4.678269863128662109e+00,-3.776550292968750000e+00,-3.585815429687500000e-01,9.918212890625000000e-01
3.375224423408508301e+01,4.405331134796143466e+00,-8.418012619018554688e+00,-4.678269863128662109e+00,-3.799438476562500000e+00,-2.288818359375000000e-01,8.773803710937500000e-01
3.376619839668273926e+01,4.374206542968750000e+00,-8.362946510314941406e+00,-4.757278919219971591e+00,-3.799438476562500000e+00,-2.288818359375000000e-01,8.773803710937500000e-01
3.377862358093261719e+01,4.402936935424804688e+00,-8.418012619018554688e+00,-4.757278919219971591e+00,-3.799438476562500000e+00,-2.288818359375000000e-01,8.621215820312500000e-01
3.379145121574401855e+01,4.376600742340087891e+00,-8.418012619018554688e+00,-4.718971252441406250e+00,-3.868103027343750000e+00,-1.831054687500000000e-01,8.544921875000000000e-01
3.380805659294128418e+01,4.402936935424804688e+00,-8.418012619018554688e+00,-4.709394454956054688e+00,-3.746032714843750000e+00,-3.280639648437500000e-01,7.781982421875000000e-01
3.381791186332702637e+01,4.376600742340087891e+00,-8.413224220275878906e+00,-4.697423458099365234e+00,-3.868103027343750000e+00,-3.280639648437500000e-01,7.781982421875000000e-01
3.383328652381896973e+01,4.405331134796143466e+00,-8.413224220275878906e+00,-4.697423458099365234e+00,-3.852844238281250000e+00,-3.280639648437500000e-01,8.697509765625000000e-01
3.385004854202270508e+01,4.355052947998046875e+00,-8.413224220275878906e+00,-4.750096321105957031e+00,-3.852844238281250000e+00,-2.212524414062500000e-01,8.697509765625000000e-01
3.386078405380249023e+01,4.364629745483397549e+00,-8.437166213989257812e+00,-4.750096321105957031e+00,-3.730773925781250000e+00,-2.212524414062500000e-01,8.697509765625000000e-01
3.387436294555664062e+01,4.355052947998046875e+00,-8.346186637878417969e+00,-4.697423458099365234e+00,-3.730773925781250000e+00,-2.212524414062500000e-01,6.256103515625000000e-01
3.388664555549621582e+01,4.364629745483397549e+00,-8.372523307800292969e+00,-4.697423458099365234e+00,-3.730773925781250000e+00,-1.296997070312500000e-01,5.950927734375000000e-01
3.390207219123840332e+01,4.395754337310791016e+00,-8.346186637878417969e+00,-4.651933670043945312e+00,-3.730773925781250000e+00,-1.296997070312500000e-01,5.950927734375000000e-01
3.391435813903808594e+01,4.395754337310791016e+00,-8.372523307800292969e+00,-4.762067317962647373e+00,-3.967285156250000000e+00,-3.890991210937500000e-01,6.408691406250000000e-01
3.392893314361572266e+01,4.378994941711426669e+00,-8.394070625305175781e+00,-4.651933670043945312e+00,-3.967285156250000000e+00,-3.890991210937500000e-01,7.476806640625000000e-01
3.394392848014831543e+01,4.371812343597412109e+00,-8.394070625305175781e+00,-4.611232280731201172e+00,-3.753662109375000000e+00,-3.051757812500000000e-01,7.858276367187500000e-01
3.395631885528564453e+01,4.371812343597412109e+00,-8.386888504028320312e+00,-4.611232280731201172e+00,-3.753662109375000000e+00,-3.051757812500000000e-01,8.850097656250000000e-01
3.397122693061828613e+01,4.376600742340087891e+00,-8.386888504028320312e+00,-4.814739704132080078e+00,-3.753662109375000000e+00,-4.272460937500000000e-01,8.239746093750000000e-01
3.398223352432250977e+01,4.376600742340087891e+00,-8.379705429077146661e+00,-4.814739704132080078e+00,-3.646850585937500000e+00,-4.272460937500000000e-01,8.239746093750000000e-01
3.399820351600646973e+01,4.357447147369384766e+00,-8.379705429077146661e+00,-4.809951305389403409e+00,-3.639221191406250000e+00,-4.272460937500000000e-01,8.239746093750000000e-01
3.401038241386413574e+01,4.357447147369384766e+00,-8.267178535461425781e+00,-4.809951305389403409e+00,-3.646850585937500000e+00,-2.670288085937500000e-01,9.613037109375000000e-01
3.402518153190612793e+01,4.371812343597412109e+00,-8.267178535461425781e+00,-4.809951305389403409e+00,-3.662109375000000000e+00,-2.517700195312500000e-01,9.918212890625000000e-01
3.403970003128051758e+01,4.386177539825440341e+00,-8.267178535461425781e+00,-4.757278919219971591e+00,-3.662109375000000000e+00,1.296997070312500000e-01,9.613037109375000000e-01
3.405225777626037598e+01,4.371812343597412109e+00,-8.331821441650388849e+00,-4.757278919219971591e+00,-3.662109375000000000e+00,6.866455078125000000e-02,9.918212890625000000e-01
3.406660556793212891e+01,4.285621166229248047e+00,-8.408435821533201349e+00,-4.714182853698730469e+00,-4.043579101562500000e+00,1.449584960937500000e-01,1.060485839843750000e+00
3.407917428016662598e+01,4.285621166229248047e+00,-8.408435821533201349e+00,-4.644751071929931641e+00,-4.043579101562500000e+00,6.866455078125000000e-02,1.998901367187500000e+00
3.409394955635070801e+01,4.254496574401856357e+00,-8.123526573181152344e+00,-4.644751071929931641e+00,-4.043579101562500000e+00,-6.408691406250000000e-01,1.998901367187500000e+00
3.410627985000610352e+01,4.326322555541991299e+00,-8.123526573181152344e+00,-4.584896087646483487e+00,-3.417968750000000000e+00,-1.007080078125000000e+00,2.052307128906250000e+00
3.412025022506713867e+01,4.326322555541991299e+00,-8.353369712829589844e+00,-4.797980308532714844e+00,-4.119873046875000000e+00,-1.411437988281250000e+00,1.930236816406250000e+00
3.413622426986694336e+01,4.331110954284667969e+00,-8.353369712829589844e+00,-4.797980308532714844e+00,-3.982543945312500000e+00,-1.411437988281250000e+00,1.930236816406250000e+00
3.414774847030639648e+01,4.400542736053466797e+00,-8.353369712829589844e+00,-4.797980308532714844e+00,-4.119873046875000000e+00,-1.174926757812500000e+00,1.930236816406250000e+00
3.416329526901245117e+01,4.400542736053466797e+00,-8.322244644165039062e+00,-4.757278919219971591e+00,-4.173278808593750000e+00,-1.174926757812500000e+00,1.930236816406250000e+00
3.417486047744750977e+01,4.441244125366210938e+00,-8.310274124145507812e+00,-4.678269863128662109e+00,-4.173278808593750000e+00,-1.174926757812500000e+00,1.312255859375000000e+00
3.418958258628845215e+01,4.441244125366210938e+00,-8.221688270568847656e+00,-4.678269863128662109e+00,-4.501342773437500000e+00,-9.231567382812500000e-01,2.464294433593750000e+00
3.420190978050231934e+01,4.280832767486571377e+00,-8.259995460510253906e+00,-4.671087265014648438e+00,-3.883361816406250000e+00,-6.942749023437500000e-01,1.152038574218750000e+00
3.421733832359313965e+01,4.280832767486571377e+00,-8.259995460510253906e+00,-4.714182853698730469e+00,-4.646301269531250000e+00,-9.231567382812500000e-01,1.983642578125000000e+00
3.422845292091369629e+01,4.378994941711426669e+00,-8.449137687683105469e+00,-4.733336448669433594e+00,-4.646301269531250000e+00,-1.129150390625000000e+00,1.983642578125000000e+00
3.424408030509948730e+01,4.390965938568115234e+00,-8.449137687683105469e+00,-4.843470096588134766e+00,-4.646301269531250000e+00,-2.059936523437500000e+00,2.220153808593750000e+00
3.425879740715026855e+01,4.390965938568115234e+00,-8.394070625305175781e+00,-4.843470096588134766e+00,-4.936218261718750000e+00,-1.129150390625000000e+00,2.220153808593750000e+00
3.427307891845703125e+01,4.467580318450927734e+00,-8.394070625305175781e+00,-4.946420669555664062e+00,-5.706787109375000000e+00,-1.823425292968750000e+00,2.220153808593750000e+00
3.428554487228393555e+01,4.467580318450927734e+00,-8.394070625305175781e+00,-4.850652694702148438e+00,-5.706787109375000000e+00,-1.823425292968750000e+00,2.990722656250000000e+00
3.429789781570434570e+01,4.467580318450927734e+00,-8.456319808959960938e+00,-4.850652694702148438e+00,-4.295349121093750000e+00,-2.433776855468750000e+00,2.990722656250000000e+00
3.431517243385314941e+01,4.429273128509521484e+00,-8.226476669311521661e+00,-4.663904666900634766e+00,-4.295349121093750000e+00,-2.433776855468750000e+00,2.471923828125000000e+00
3.432629585266113281e+01,4.192246913909912109e+00,-8.238448143005371094e+00,-4.663904666900634766e+00,-4.127502441406250000e+00,-2.433776855468750000e+00,1.640319824218750000e+00
3.433945226669311523e+01,4.141968727111816406e+00,-8.152256965637207031e+00,-4.228159904479980469e+00,-4.241943359375000000e+00,-2.899169921875000000e+00,1.640319824218750000e+00
3.435712862014770508e+01,4.192246913909912109e+00,-8.238448143005371094e+00,-4.443638324737548828e+00,-4.241943359375000000e+00,-3.372192382812500000e+00,2.845764160156250000e+00
3.436811852455139160e+01,4.043806552886962891e+00,-8.398859024047853339e+00,-4.443638324737548828e+00,-4.646301269531250000e+00,-3.463745117187500000e+00,3.654479980468750000e+00
3.438171124458312988e+01,4.381389141082763672e+00,-8.398859024047853339e+00,-4.788403511047363281e+00,-5.447387695312500000e+00,-3.463745117187500000e+00,3.654479980468750000e+00
3.439616322517395020e+01,4.201823711395263672e+00,-8.286332130432128906e+00,-4.965574264526367188e+00,-4.646301269531250000e+00,-2.265930175781250000e+00,2.258300781250000000e+00
3.440912413597106934e+01,4.201823711395263672e+00,-8.255207061767576349e+00,-4.879383087158203125e+00,-4.180908203125000000e+00,-2.265930175781250000e+00,2.258300781250000000e+00
3.442041802406311035e+01,4.201823711395263672e+00,-7.975085735321044922e+00,-4.879383087158203125e+00,-4.104614257812500000e+00,-6.095886230468750000e+00,2.807617187500000000e+00
3.443814826011657715e+01,4.015076160430908203e+00,-7.975085735321044922e+00,-4.879383087158203125e+00,-4.180908203125000000e+00,-6.095886230468750000e+00,3.349304199218750000e+00
3.444922685623168945e+01,4.290409564971923828e+00,-8.078036308288574219e+00,-4.814739704132080078e+00,-6.729125976562500000e+00,-8.071899414062500000e+00,3.509521484375000000e+00
3.446210598945617676e+01,4.290409564971923828e+00,-8.231265068054200995e+00,-4.845864295959472656e+00,-7.652282714843750000e+00,-9.086608886718750000e+00,3.509521484375000000e+00
3.448010563850402832e+01,4.290409564971923828e+00,-8.264783859252929688e+00,-4.781220912933349609e+00,-7.652282714843750000e+00,-9.391784667968750000e+00,5.310058593750000000e+00
3.449074578285217285e+01,4.242525577545166016e+00,-8.231265068054200995e+00,-4.718971252441406250e+00,-8.529663085937500000e+00,-1.042175292968750000e+01,6.858825683593750000e+00
3.450514221191406250e+01,4.050989151000977451e+00,-8.264783859252929688e+00,-4.718971252441406250e+00,-1.219177246093750000e+01,-1.042175292968750000e+01,5.508422851562500000e+00
3.451922655105590820e+01,4.129997730255126953e+00,-8.147468566894531250e+00,-4.718971252441406250e+00,-1.306152343750000000e+01,-8.819580078125000000e+00,5.508422851562500000e+00
3.453158617019653320e+01,4.129997730255126953e+00,-8.353369712829589844e+00,-4.714182853698730469e+00,-1.219177246093750000e+01,-3.395080566406250000e+00,2.006530761718750000e+00
3.454346251487731934e+01,4.259284973144531250e+00,-8.147468566894531250e+00,-4.714182853698730469e+00,-9.109497070312500000e+00,-5.432128906250000000e+00,1.838684082031250000e+00
3.455938649177551270e+01,4.261679172515868252e+00,-8.681375503540039062e+00,-4.865017890930175781e+00,-8.636474609375000000e+00,-5.432128906250000000e+00,1.838684082031250000e+00
3.457053852081298828e+01,4.261679172515868252e+00,-8.051700592041017401e+00,-4.865017890930175781e+00,-9.109497070312500000e+00,-5.432128906250000000e+00,4.562377929687500000e+00
3.458629250526428223e+01,4.122815132141113281e+00,-8.437166213989257812e+00,-4.805162906646728516e+00,-1.108551025390625000e+01,-6.164550781250000000e+00,7.133483886718750000e+00
3.460103178024291992e+01,4.106055736541748047e+00,-8.437166213989257812e+00,-4.805162906646728516e+00,-1.108551025390625000e+01,-4.882812500000000000e+00,4.562377929687500000e+00
3.461213922500610352e+01,4.122815132141113281e+00,-8.437166213989257812e+00,-5.204994201660156250e+00,-1.287078857421875000e+01,-7.072448730468750000e+00,4.745483398437500000e+00
3.462784385681152344e+01,4.003105163574218750e+00,-8.621520042419433594e+00,-5.511452198028564453e+00,-1.042938232421875000e+01,-6.439208984375000000e+00,4.745483398437500000e+00
3.463996362686157227e+01,4.448426723480224609e+00,-8.350975036621093750e+00,-5.511452198028564453e+00,-1.033020019531250000e+01,-6.439208984375000000e+00,5.187988281250000000e+00
3.465447235107421875e+01,3.811568975448607954e+00,-8.298302650451660156e+00,-4.845864295959472656e+00,-1.033020019531250000e+01,-5.378723144531250000e+00,5.187988281250000000e+00
3.466703724861145020e+01,4.132391929626464844e+00,-8.161833763122558594e+00,-4.845864295959472656e+00,-1.036834716796875000e+01,-5.378723144531250000e+00,5.187988281250000000e+00
3.468162989616394043e+01,3.766079187393188921e+00,-8.298302650451660156e+00,-5.011064052581787109e+00,-1.036834716796875000e+01,-6.301879882812500000e+00,4.707336425781250000e+00
3.469697666168212891e+01,4.132391929626464844e+00,-8.161833763122558594e+00,-5.011064052581787109e+00,-1.379394531250000000e+01,-1.005554199218750000e+01,4.577636718750000000e+00
3.470812201499938965e+01,3.739742994308472124e+00,-8.453926086425781250e+00,-5.011064052581787109e+00,-1.316833496093750000e+01,-1.005554199218750000e+01,4.577636718750000000e+00
3.472355818748474121e+01,3.545812606811523438e+00,-7.582436561584472656e+00,-5.082890033721923828e+00,-1.588439941406250000e+01,-1.005554199218750000e+01,4.577636718750000000e+00
3.473617887496948242e+01,3.545812606811523438e+00,-8.092401504516603339e+00,-5.082890033721923828e+00,-1.669311523437500000e+01,-6.416320800781250000e+00,4.371643066406250000e+00
3.475108313560485840e+01,4.101267337799071377e+00,-8.092401504516603339e+00,-5.274426460266113281e+00,-1.669311523437500000e+01,-6.362915039062500000e+00,3.234863281250000000e+00
3.476667809486389160e+01,4.101267337799071377e+00,-8.384493827819824219e+00,-5.588066577911376953e+00,-1.644897460937500000e+01,-6.416320800781250000e+00,3.234863281250000000e+00
3.477769398689270020e+01,4.101267337799071377e+00,-8.860939979553222656e+00,-5.588066577911376953e+00,-1.185607910156250000e+01,-1.663208007812500000e+00,3.448486328125000000e+00
3.478979563713073730e+01,4.180275917053223544e+00,-8.384493827819824219e+00,-5.082890033721923828e+00,-1.050567626953125000e+01,-4.180908203125000000e+00,5.760192871093750000e+00
3.480459809303283691e+01,4.180275917053223544e+00,-8.329427719116210938e+00,-5.082890033721923828e+00,-1.050567626953125000e+01,-4.180908203125000000e+00,5.760192871093750000e+00
3.481948471069335938e+01,3.842693567276001421e+00,-8.310274124145507812e+00,-5.058948040008544922e+00,-1.213073730468750000e+01,-4.180908203125000000e+00,5.760192871093750000e+00
3.483155155181884766e+01,3.603273391723633257e+00,-8.054094314575195312e+00,-5.111620426177978516e+00,-1.515197753906250000e+01,-8.575439453125000000e+00,4.348754882812500000e+00
3.484677696228027344e+01,3.603273391723633257e+00,-8.054094314575195312e+00,-5.058948040008544922e+00,-1.548767089843750000e+01,-8.575439453125000000e+00,4.348754882812500000e+00
3.485894703865051270e+01,3.842693567276001421e+00,-8.269572257995605469e+00,-5.597643375396728516e+00,-1.647949218750000000e+01,-8.979797363281250000e+00,7.751464843750000000e+00
3.487427163124084473e+01,3.842693567276001421e+00,-8.401253700256347656e+00,-5.492298603057861328e+00,-1.963043212890625000e+01,-8.979797363281250000e+00,7.751464843750000000e+00
3.488573789596557617e+01,3.842693567276001421e+00,-8.408435821533201349e+00,-5.640738964080810547e+00,-1.963043212890625000e+01,-6.271362304687500000e+00,8.666992187500000000e+00
3.490318202972412109e+01,3.639186620712279829e+00,-8.408435821533201349e+00,-5.719747543334960938e+00,-1.838684082031250000e+01,-6.271362304687500000e+00,8.666992187500000000e+00
3.491437339782714844e+01,3.639186620712279829e+00,-8.123526573181152344e+00,-5.817910194396972656e+00,-1.479339599609375000e+01,-9.269714355468750000e+00,9.513854980468750000e+00
3.492821955680847168e+01,3.639186620712279829e+00,-8.123526573181152344e+00,-5.817910194396972656e+00,-1.322937011718750000e+01,-9.269714355468750000e+00,9.513854980468750000e+00
3.494519281387329102e+01,3.787626981735229492e+00,-8.279149055480957031e+00,-5.817910194396972656e+00,-1.206207275390625000e+01,-1.161956787109375000e+01,8.674621582031250000e+00
3.495645642280578613e+01,3.873818397521972656e+00,-8.425195693969728339e+00,-5.815515995025634766e+00,-1.206207275390625000e+01,-4.417419433593750000e+00,6.958007812500000000e+00
3.497033667564392090e+01,3.787626981735229492e+00,-8.279149055480957031e+00,-5.815515995025634766e+00,-1.206207275390625000e+01,-1.161956787109375000e+01,8.674621582031250000e+00
3.498408651351928711e+01,3.737348794937133789e+00,-7.970297336578369141e+00,-5.679046154022217685e+00,-1.203918457031250000e+01,-1.284790039062500000e+01,1.383209228515625000e+01
3.499635100364685059e+01,2.834734678268432617e+00,-7.661445140838622159e+00,-5.650315761566162109e+00,-1.318359375000000000e+01,-1.284790039062500000e+01,1.383209228515625000e+01
3.500855016708374023e+01,2.834734678268432617e+00,-7.661445140838622159e+00,-5.571307182312011719e+00,-1.641845703125000000e+01,-8.666992187500000000e+00,9.452819824218750000e+00
3.502611064910888672e+01,3.284844636917114258e+00,-8.020575523376464844e+00,-5.571307182312011719e+00,-1.736450195312500000e+01,-5.737304687500000000e+00,6.034851074218750000e+00
3.503736805915832520e+01,3.397372245788573775e+00,-8.020575523376464844e+00,-5.583278179168701172e+00,-1.839447021484375000e+01,-5.737304687500000000e+00,5.371093750000000000e+00
3.505047750473022461e+01,3.928884983062743697e+00,-8.020575523376464844e+00,-5.853823184967041016e+00,-1.736450195312500000e+01,-5.737304687500000000e+00,5.371093750000000000e+00
3.506817722320556641e+01,3.928884983062743697e+00,-8.485051155090332031e+00,-6.449979305267333984e+00,-1.470184326171875000e+01,-7.110595703125000000e+00,6.034851074218750000e+00
3.507954716682434082e+01,3.356670618057251421e+00,-8.485051155090332031e+00,-6.449979305267333984e+00,-1.453399658203125000e+01,-3.601074218750000000e+00,6.034851074218750000e+00
3.509249114990234375e+01,3.356670618057251421e+00,-8.281543731689451349e+00,-5.863399982452392578e+00,-1.453399658203125000e+01,-3.547668457031250000e+00,3.479003906250000000e+00
3.511025357246398926e+01,3.311180830001831055e+00,-8.022970199584960938e+00,-5.863399982452392578e+00,-1.628875732421875000e+01,-3.547668457031250000e+00,3.479003906250000000e+00
3.512200403213500977e+01,3.311180830001831055e+00,-8.281543731689451349e+00,-5.935225963592528409e+00,-1.628875732421875000e+01,-1.251220703125000000e+00,2.990722656250000000e+00
3.513504576683044434e+01,3.311180830001831055e+00,-8.322244644165039062e+00,-5.935225963592528409e+00,-1.668548583984375000e+01,-4.905700683593750000e+00,4.684448242187500000e+00
3.514919447898864746e+01,3.943250179290771928e+00,-8.322244644165039062e+00,-5.935225963592528409e+00,-1.628112792968750000e+01,1.716613769531250000e+00,2.250671386718750000e+00
3.516216683387756348e+01,3.943250179290771928e+00,-8.271966934204103339e+00,-5.971138954162597656e+00,-1.628112792968750000e+01,-1.472473144531250000e+00,3.776550292968750000e+00
3.517330455780029297e+01,3.538630008697509766e+00,-8.145073890686035156e+00,-6.045359134674072266e+00,-1.400756835937500000e+01,-1.472473144531250000e+00,3.776550292968750000e+00
3.518904232978820801e+01,3.203441858291626421e+00,-8.010998725891111505e+00,-6.038176536560058594e+00,-1.103973388671875000e+01,-4.722595214843750000e+00,8.369445800781250000e+00
3.520390248298645020e+01,3.203441858291626421e+00,-8.010998725891111505e+00,-6.038176536560058594e+00,-1.092529296875000000e+01,-4.722595214843750000e+00,8.369445800781250000e+00
3.521638202667236328e+01,3.495534420013428178e+00,-7.833827972412108487e+00,-6.038176536560058594e+00,-1.092529296875000000e+01,-8.567810058593750000e+00,5.615234375000000000e+00
3.523034358024597168e+01,3.495534420013428178e+00,-7.692569732666016513e+00,-6.002263545989990234e+00,-1.534271240234375000e+01,-4.310607910156250000e+00,4.768371582031250000e+00
3.524305438995361328e+01,3.495534420013428178e+00,-7.692569732666016513e+00,-6.093243122100830078e+00,-1.534271240234375000e+01,-4.310607910156250000e+00,4.768371582031250000e+00
3.525821256637573242e+01,3.110067844390868697e+00,-7.809885978698729581e+00,-6.093243122100830078e+00,-1.396942138671875000e+01,-1.960754394531250000e+00,7.629394531250000000e-01
3.527323389053344727e+01,3.986345767974853516e+00,-7.888894557952880859e+00,-6.093243122100830078e+00,-1.396942138671875000e+01,-1.159667968750000000e+00,7.629394531250000000e-01
3.528476619720458984e+01,3.241749048233031782e+00,-7.888894557952880859e+00,-6.452373504638672763e+00,-1.415252685546875000e+01,-1.960754394531250000e+00,4.821777343750000000e+00
3.530038022994995117e+01,3.241749048233031782e+00,-7.671021938323974609e+00,-6.452373504638672763e+00,-1.415252685546875000e+01,-1.159667968750000000e+00,4.821777343750000000e+00
3.531128215789794922e+01,2.930502891540527788e+00,-7.671021938323974609e+00,-6.452373504638672763e+00,-1.082611083984375000e+01,-7.843017578125000000e+00,-1.556396484375000000e+00
3.532844662666320801e+01,2.930502891540527788e+00,-7.831433773040771484e+00,-6.347028732299804688e+00,-1.082611083984375000e+01,-4.394531250000000000e+00,-1.556396484375000000e+00
3.534004020690917969e+01,2.930502891540527788e+00,-7.836222171783447266e+00,-5.944802761077880859e+00,-1.213836669921875000e+01,-4.394531250000000000e+00,-1.678466796875000000e+00
3.535427165031433105e+01,3.157952070236206055e+00,-7.910442352294922763e+00,-5.394136428833007812e+00,-1.643371582031250000e+01,1.042938232421875000e+01,-1.678466796875000000e+00
3.536557078361511230e+01,3.840299367904663086e+00,-8.252813339233396661e+00,-5.394136428833007812e+00,-1.643371582031250000e+01,1.042938232421875000e+01,-1.678466796875000000e+00
3.538046407699584961e+01,3.840299367904663086e+00,-8.554482460021972656e+00,-6.876147270202637607e+00,-1.643371582031250000e+01,4.829406738281250000e+00,2.052307128906250000e+00
3.539603042602539062e+01,3.643975019454956055e+00,-8.252813339233396661e+00,-6.876147270202637607e+00,-1.306152343750000000e+01,1.319885253906250000e+00,2.052307128906250000e+00
3.540723681449890137e+01,3.239354848861694336e+00,-8.200140953063964844e+00,-6.806715488433837891e+00,-1.264190673828125000e+01,-2.517700195312500000e-01,3.509521484375000000e+00
3.542301154136657715e+01,3.026270866394042969e+00,-8.097189903259277344e+00,-6.806715488433837891e+00,-1.264190673828125000e+01,-2.517700195312500000e-01,3.509521484375000000e+00
3.543435645103454590e+01,3.026270866394042969e+00,-7.706934928894042969e+00,-5.851428985595702237e+00,-1.264190673828125000e+01,-2.517700195312500000e-01,3.509521484375000000e+00
3.545013284683227539e+01,4.347870349884033203e+00,-7.359776020050048828e+00,-5.547365188598632812e+00,-1.370239257812500000e+01,-8.445739746093750000e+00,1.861572265625000000e+00
3.546539378166198730e+01,4.347870349884033203e+00,-7.359776020050048828e+00,-5.547365188598632812e+00,-1.699829101562500000e+01,-9.468078613281250000e+00,1.495361328125000000e+00
3.547717881202697754e+01,3.485957622528076172e+00,-7.843404769897460938e+00,-6.655880451202392578e+00,-2.093505859375000000e+01,-9.468078613281250000e+00,1.861572265625000000e+00
3.549408912658691406e+01,3.028665065765381303e+00,-7.843404769897460938e+00,-6.725312232971191406e+00,-1.699829101562500000e+01,1.274108886718750000e+01,1.495361328125000000e+00
3.550521206855773926e+01,3.028665065765381303e+00,-7.661445140838622159e+00,-6.725312232971191406e+00,-1.345062255859375000e+01,1.393127441406250000e+01,-1.163482666015625000e+01
3.551833605766296387e+01,3.543418407440185103e+00,-7.254431247711182529e+00,-5.133168220520020419e+00,-1.345062255859375000e+01,1.393127441406250000e+01,-1.163482666015625000e+01
3.553315186500549316e+01,5.913678169250487393e+00,-7.254431247711182529e+00,-5.133168220520020419e+00,-1.345062255859375000e+01,-8.026123046875000000e+00,-4.661560058593750000e+00
3.554576849937438965e+01,3.543418407440185103e+00,-7.505822181701660156e+00,-6.746860504150391513e+00,-1.158142089843750000e+01,-8.026123046875000000e+00,-4.661560058593750000e+00
3.555783939361572266e+01,3.033453464508056641e+00,-7.505822181701660156e+00,-6.746860504150391513e+00,-9.574890136718750000e+00,1.414489746093750000e+01,-1.476287841796875000e+01
3.557514953613281250e+01,2.760514497756958008e+00,-6.766014099121093750e+00,-6.150703907012940341e+00,-1.541137695312500000e+00,4.547882080078125000e+01,-3.115081787109375000e+01
3.558649206161499023e+01,2.760514497756958008e+00,-6.392518520355224609e+00,-6.076483726501464844e+00,-1.541137695312500000e+00,4.547882080078125000e+01,-3.115081787109375000e+01
3.560008406639099121e+01,4.484339714050292969e+00,-6.392518520355224609e+00,-6.076483726501464844e+00,-1.541137695312500000e+00,4.547882080078125000e+01,-3.115081787109375000e+01
3.561708354949951172e+01,4.484339714050292969e+00,-6.392518520355224609e+00,-6.076483726501464844e+00,-4.714965820312500000e+00,5.155181884765625000e+01,-3.588104248046875000e+01
3.562866783142089844e+01,4.484339714050292969e+00,-7.414842605590820312e+00,-6.993463039398192471e+00,7.682800292968750000e+00,5.155181884765625000e+01,-3.588104248046875000e+01
3.564124560356140137e+01,4.362235546112060547e+00,-7.414842605590820312e+00,-6.993463039398192471e+00,7.682800292968750000e+00,4.120635986328125000e+01,-2.553558349609375000e+01
3.565615200996398926e+01,4.362235546112060547e+00,-7.769184589385986328e+00,-6.993463039398192471e+00,1.123046875000000000e+01,4.120635986328125000e+01,-2.553558349609375000e+01
3.566865658760070801e+01,4.024652957916259766e+00,-7.769184589385986328e+00,-6.854599475860596591e+00,3.103637695312500000e+01,4.723358154296875000e+01,-2.548980712890625000e+01
3.568436264991760254e+01,4.024652957916259766e+00,-7.769184589385986328e+00,-6.854599475860596591e+00,3.116607666015625000e+01,4.723358154296875000e+01,-2.548980712890625000e+01
3.569814801216125488e+01,5.013458251953125000e+00,-8.202534675598144531e+00,-7.501033782958983487e+00,3.826141357421875000e+01,3.997802734375000000e+01,-1.757812500000000000e+01
3.571106243133544922e+01,5.861005783081054688e+00,-8.827421188354492188e+00,-8.401253700256347656e+00,4.473114013671875000e+01,1.720428466796875000e+01,-5.340576171875000000e-01
3.572237086296081543e+01,5.861005783081054688e+00,-8.827421188354492188e+00,-7.501033782958983487e+00,3.826141357421875000e+01,-3.265380859375000000e+00,1.859283447265625000e+01
3.574039649963378906e+01,-2.944868087768554688e+00,-4.441244125366210938e+00,2.525882720947265625e+00,5.199432373046875000e+01,1.720428466796875000e+01,1.859283447265625000e+01
3.575261449813842773e+01,-2.944868087768554688e+00,-4.108449935913086826e+00,2.525882720947265625e+00,4.496765136718750000e+01,-1.042938232421875000e+01,6.469726562500000000e+00
3.576453161239624023e+01,7.122749805450440341e+00,-4.441244125366210938e+00,-7.338228225708007812e+00,4.496765136718750000e+01,2.669525146484375000e+01,-3.078460693359375000e+01
3.577947163581848145e+01,7.122749805450440341e+00,-7.108384609222412109e+00,-7.338228225708007812e+00,1.810455322265625000e+01,2.669525146484375000e+01,-5.056762695312500000e+01
3.579147863388061523e+01,6.251260757446289062e+00,-8.439560890197753906e+00,-7.544129371643066406e+00,1.810455322265625000e+01,2.669525146484375000e+01,-3.078460693359375000e+01
3.580636811256408691e+01,6.251260757446289062e+00,-8.008605003356933594e+00,-3.347093820571899414e+00,6.004333496093750000e+01,-8.255004882812500000e+00,-1.941680908203125000e+01
3.581853389739990234e+01,7.795520782470702237e+00,-8.008605003356933594e+00,-5.293580055236816406e+00,6.096649169921875000e+01,-1.965332031250000000e+01,2.495574951171875000e+01
3.583418679237365723e+01,7.795520782470702237e+00,-6.768408298492432529e+00,-3.347093820571899414e+00,6.421661376953125000e+01,-8.255004882812500000e+00,2.495574951171875000e+01
3.584883952140808105e+01,7.795520782470702237e+00,-6.768408298492432529e+00,-1.015141487121582031e+00,6.421661376953125000e+01,1.770019531250000000e+00,-2.609252929687500000e+01
3.586123490333557129e+01,-1.297657251358032227e+00,-6.064512729644775391e+00,-1.015141487121582031e+00,1.235961914062500000e+00,1.070404052734375000e+01,-2.609252929687500000e+01
3.587579703330993652e+01,9.437942504882812500e+00,-6.821080684661865234e+00,-2.940079689025878906e+00,1.235961914062500000e+00,1.070404052734375000e+01,-2.609252929687500000e+01
3.588789296150207520e+01,4.639962673187255859e+00,-6.064512729644775391e+00,-2.940079689025878906e+00,2.807617187500000000e+00,1.070404052734375000e+01,8.308410644531250000e+00
3.590334320068359375e+01,5.087678432464599609e+00,-6.507440090179442471e+00,7.134720683097839355e-01,2.807617187500000000e+00,2.659606933593750000e+01,-1.947784423828125000e+01
3.591432595252990723e+01,5.087678432464599609e+00,-6.507440090179442471e+00,7.134720683097839355e-01,-1.648712158203125000e+01,-1.081848144531250000e+01,1.847839355468750000e+01
3.593007612228393555e+01,5.087678432464599609e+00,-8.149862289428710938e+00,-4.151545524597167969e+00,-1.648712158203125000e+01,6.172180175781250000e+00,-1.947784423828125000e+01
3.594438862800598145e+01,5.176263809204101562e+00,-8.149862289428710938e+00,-4.151545524597167969e+00,-9.574890136718750000e+00,6.172180175781250000e+00,-5.508422851562500000e+00
3.595663452148437500e+01,4.280832767486571377e+00,-8.149862289428710938e+00,-4.151545524597167969e+00,-9.574890136718750000e+00,6.172180175781250000e+00,-5.508422851562500000e+00
3.597129583358764648e+01,5.674257755279541016e+00,-8.528146743774414062e+00,-5.363011837005615234e+00,-9.574890136718750000e+00,3.173828125000000000e+00,3.356933593750000000e+00
3.598343753814697266e+01,4.280832767486571377e+00,-8.528146743774414062e+00,-5.363011837005615234e+00,-3.845214843750000000e+00,8.392333984375000000e-01,5.058288574218750000e+00
3.599908971786499023e+01,3.600879192352294922e+00,-8.528146743774414062e+00,-4.939238071441650391e+00,-3.845214843750000000e+00,6.713867187500000000e-01,3.356933593750000000e+00
3.601067376136779785e+01,3.600879192352294922e+00,-8.535328865051269531e+00,-4.939238071441650391e+00,-3.845214843750000000e+00,-4.882812500000000000e-01,-7.629394531250000000e-03
3.602590966224670410e+01,4.084507942199707031e+00,-8.535328865051269531e+00,-4.939238071441650391e+00,-7.324218750000000000e-01,-4.882812500000000000e-01,-2.487182617187500000e+00
3.603796744346618652e+01,4.903325080871582031e+00,-8.013393402099611151e+00,-4.659116268157958984e+00,-7.324218750000000000e-01,-8.316040039062500000e-01,-2.487182617187500000e+00
3.605293154716491699e+01,4.903325080871582031e+00,-8.013393402099611151e+00,-4.659116268157958984e+00,-2.067565917968750000e+00,-2.098083496093750000e+00,4.425048828125000000e+00
3.606765842437744141e+01,3.995922565460205078e+00,-8.489839553833007812e+00,-5.027823448181152344e+00,-2.067565917968750000e+00,-2.098083496093750000e+00,4.425048828125000000e+00
3.607991099357604980e+01,3.995922565460205078e+00,-8.489839553833007812e+00,-5.027823448181152344e+00,-2.067565917968750000e+00,-1.266479492187500000e+00,-1.434326171875000000e+00
3.609477281570434570e+01,5.130774021148681641e+00,-8.681375503540039062e+00,-5.528211593627929688e+00,-3.173828125000000000e+00,1.220703125000000000e+00,-1.434326171875000000e+00
3.610705637931823730e+01,5.377377033233643466e+00,-8.099584579467771661e+00,-4.043806552886962891e+00,-3.494262695312500000e+00,8.087158203125000000e-01,-8.697509765625000000e-01
3.612407684326171875e+01,5.377377033233643466e+00,-8.451531410217285156e+00,-4.721365451812744141e+00,-4.928588867187500000e+00,1.541137695312500000e+00,5.043029785156250000e+00
3.613724446296691895e+01,3.529053211212158203e+00,-8.274360656738281250e+00,-4.721365451812744141e+00,-4.928588867187500000e+00,8.087158203125000000e-01,5.043029785156250000e+00
3.614824366569519043e+01,3.529053211212158203e+00,-8.283937454223632812e+00,-4.721365451812744141e+00,-5.371093750000000000e+00,4.043579101562500000e-01,-6.561279296875000000e-01
3.616614508628845215e+01,4.498704910278320312e+00,-8.283937454223632812e+00,-4.932055473327636719e+00,-2.494812011718750000e+00,4.043579101562500000e-01,-2.197265625000000000e+00
3.617756104469299316e+01,4.627991676330566406e+00,-8.458714485168457031e+00,-5.035006046295166016e+00,-2.494812011718750000e+00,-5.340576171875000000e-01,-2.197265625000000000e+00
3.619024658203125000e+01,4.975151062011718750e+00,-8.458714485168457031e+00,-5.035006046295166016e+00,-2.494812011718750000e+00,-5.798339843750000000e-01,8.468627929687500000e-01
3.620513486862182617e+01,4.975151062011718750e+00,-8.458714485168457031e+00,-4.532223701477050781e+00,-2.639770507812500000e+00,-5.798339843750000000e-01,3.204345703125000000e+00
3.621745991706848145e+01,3.739742994308472124e+00,-8.497021675109861505e+00,-4.532223701477050781e+00,-2.639770507812500000e+00,-7.171630859375000000e-01,3.204345703125000000e+00
3.623328566551208496e+01,3.739742994308472124e+00,-8.497021675109861505e+00,-4.532223701477050781e+00,-2.639770507812500000e+00,9.918212890625000000e-02,-1.037597656250000000e+00
3.624703574180603027e+01,5.018246650695800781e+00,-7.826645374298096591e+00,-4.386177539825440341e+00,-4.608154296875000000e+00,-7.171630859375000000e-01,-1.037597656250000000e+00
3.625949501991271973e+01,5.018246650695800781e+00,-7.826645374298096591e+00,-4.386177539825440341e+00,-5.142211914062500000e+00,7.934570312500000000e-01,3.860473632812500000e+00
3.627178049087524414e+01,4.429273128509521484e+00,-8.015787124633789062e+00,-4.434061527252197266e+00,-5.142211914062500000e+00,-6.103515625000000000e-01,3.860473632812500000e+00
3.628914427757263184e+01,4.082113742828368252e+00,-8.015787124633789062e+00,-4.872200489044189453e+00,-5.142211914062500000e+00,2.365112304687500000e-01,5.416870117187500000e-01
3.630607533454895020e+01,4.082113742828368252e+00,-8.015787124633789062e+00,-4.872200489044189453e+00,-3.021240234375000000e+00,-6.103515625000000000e-01,-8.392333984375000000e-02
3.631711697578430176e+01,4.412513732910156250e+00,-7.908048152923583984e+00,-4.872200489044189453e+00,-5.943298339843750000e+00,-1.930236816406250000e+00,-8.392333984375000000e-02
3.633112144470214844e+01,4.412513732910156250e+00,-8.303091049194335938e+00,-4.692635059356689453e+00,-5.943298339843750000e+00,-1.930236816406250000e+00,1.609802246093750000e+00
3.634284877777099609e+01,4.276044368743896484e+00,-8.300697326660156250e+00,-4.486733913421630859e+00,-5.943298339843750000e+00,1.007080078125000000e+00,1.609802246093750000e+00
3.635622859001159668e+01,4.043806552886962891e+00,-8.303091049194335938e+00,-4.486733913421630859e+00,-5.897521972656250000e+00,1.007080078125000000e+00,1.609802246093750000e+00
3.637317252159118652e+01,4.276044368743896484e+00,-8.408435821533201349e+00,-4.491522312164306641e+00,-5.287170410156250000e+00,1.007080078125000000e+00,-8.773803710937500000e-01
3.638441514968872070e+01,4.953603267669677734e+00,-8.408435821533201349e+00,-4.491522312164306641e+00,-5.287170410156250000e+00,-8.697509765625000000e-01,3.814697265625000000e-02
3.639832782745361328e+01,4.953603267669677734e+00,-8.295908927917480469e+00,-5.013458251953125000e+00,-5.287170410156250000e+00,-8.697509765625000000e-01,3.814697265625000000e-02
3.641286444664001465e+01,4.740519523620605469e+00,-8.295908927917480469e+00,-4.886565685272216797e+00,-2.441406250000000000e-01,-8.697509765625000000e-01,3.814697265625000000e-02
3.642514324188232422e+01,4.740519523620605469e+00,-8.295908927917480469e+00,-4.886565685272216797e+00,-8.392333984375000000e+00,-4.119873046875000000e-01,-2.288818359375000000e-01
3.643949723243713379e+01,4.446032524108886719e+00,-8.856151580810546875e+00,-4.886565685272216797e+00,-5.790710449218750000e+00,-4.119873046875000000e-01,-2.288818359375000000e-01
3.645229554176330566e+01,4.446032524108886719e+00,-8.106766700744628906e+00,-4.388571739196776456e+00,-5.790710449218750000e+00,-4.119873046875000000e-01,3.280639648437500000e-01
3.646676731109619141e+01,4.446032524108886719e+00,-7.833827972412108487e+00,-4.388571739196776456e+00,-5.790710449218750000e+00,1.144409179687500000e+00,3.280639648437500000e-01
3.647897362709045410e+01,4.216188907623291016e+00,-7.833827972412108487e+00,-4.388571739196776456e+00,-7.347106933593750000e+00,1.144409179687500000e+00,3.280639648437500000e-01
3.649352598190307617e+01,4.094084739685058594e+00,-7.718905925750732422e+00,-5.135562419891356534e+00,-7.347106933593750000e+00,-1.258850097656250000e+00,8.239746093750000000e-01
3.650590157508850098e+01,4.094084739685058594e+00,-7.771578788757324219e+00,-5.135562419891356534e+00,-7.347106933593750000e+00,-1.258850097656250000e+00,8.239746093750000000e-01
3.652084112167358398e+01,4.517858505249023438e+00,-7.771578788757324219e+00,-5.135562419891356534e+00,-7.263183593750000000e+00,-1.152038574218750000e+00,3.356933593750000000e-01
3.653555393218994141e+01,4.541800498962402344e+00,-8.307879447937013495e+00,-4.845864295959472656e+00,-7.263183593750000000e+00,3.509521484375000000e-01,3.356933593750000000e-01
3.654774236679077148e+01,4.541800498962402344e+00,-8.307879447937013495e+00,-4.845864295959472656e+00,-2.243041992187500000e+00,-8.392333984375000000e-01,5.264282226562500000e-01
3.656282973289489746e+01,4.266467571258544922e+00,-8.307879447937013495e+00,-4.845864295959472656e+00,-2.243041992187500000e+00,5.340576171875000000e-02,5.264282226562500000e-01
3.657453656196594238e+01,4.266467571258544922e+00,-8.647856712341308594e+00,-4.917690277099608487e+00,-5.065917968750000000e+00,5.340576171875000000e-02,1.350402832031250000e+00
3.658930158615112305e+01,4.266467571258544922e+00,-8.647856712341308594e+00,-4.917690277099608487e+00,-5.065917968750000000e+00,5.569458007812500000e-01,4.043579101562500000e-01
3.660123848915100098e+01,4.299986362457274502e+00,-7.977479934692382812e+00,-4.350264549255371094e+00,-5.386352539062500000e+00,5.569458007812500000e-01,4.730224609375000000e-01
3.661732125282287598e+01,4.299986362457274502e+00,-7.977479934692382812e+00,-4.350264549255371094e+00,-5.386352539062500000e+00,-1.716613769531250000e+00,4.730224609375000000e-01
3.663186597824096680e+01,4.299986362457274502e+00,-8.834604263305664062e+00,-5.781997203826903409e+00,-5.386352539062500000e+00,-1.716613769531250000e+00,4.730224609375000000e-01
3.664404416084289551e+01,4.862623691558837891e+00,-8.834604263305664062e+00,-5.781997203826903409e+00,-4.486083984375000000e+00,8.316040039062500000e-01,-2.647399902343750000e+00
3.665844321250915527e+01,4.910507678985596591e+00,-8.834604263305664062e+00,-4.771644115447998047e+00,-4.486083984375000000e+00,8.316040039062500000e-01,-2.647399902343750000e+00
3.667079138755798340e+01,4.910507678985596591e+00,-9.124302864074707031e+00,-4.771644115447998047e+00,-4.486083984375000000e+00,2.212524414062500000e-01,5.722045898437500000e-01
3.668576717376708984e+01,4.558559894561768466e+00,-9.124302864074707031e+00,-4.771644115447998047e+00,-1.914978027343750000e+00,2.212524414062500000e-01,5.722045898437500000e-01
3.670059370994567871e+01,4.529829502105712891e+00,-8.061277389526367188e+00,-4.091690540313721591e+00,-1.914978027343750000e+00,2.212524414062500000e-01,5.722045898437500000e-01
3.671335649490356445e+01,4.558559894561768466e+00,-8.061277389526367188e+00,-4.091690540313721591e+00,-1.914978027343750000e+00,-5.798339843750000000e-01,2.540588378906250000e+00
3.672728610038757324e+01,4.666298866271972656e+00,-8.236053466796875000e+00,-4.091690540313721591e+00,-2.212524414062500000e-01,-5.798339843750000000e-01,2.540588378906250000e+00
3.673985266685485840e+01,4.666298866271972656e+00,-8.236053466796875000e+00,-3.991134166717528853e+00,-2.212524414062500000e-01,-5.798339843750000000e-01,2.273559570312500000e+00
3.675706362724304199e+01,4.120420932769774502e+00,-8.236053466796875000e+00,-3.991134166717528853e+00,-1.785278320312500000e+00,-1.289367675781250000e+00,-2.670288085937500000e-01
3.676993060111999512e+01,4.120420932769774502e+00,-8.511386871337888849e+00,-5.334281444549560547e+00,-1.785278320312500000e+00,-1.319885253906250000e+00,2.151489257812500000e+00
3.678183174133300781e+01,4.141968727111816406e+00,-8.511386871337888849e+00,-5.334281444549560547e+00,-1.785278320312500000e+00,-1.960754394531250000e+00,-4.730224609375000000e-01
3.679907941818237305e+01,4.656722068786621094e+00,-8.511386871337888849e+00,-4.055777549743651456e+00,-5.668640136718750000e+00,-1.960754394531250000e+00,-4.730224609375000000e-01
3.681046986579895020e+01,4.469974517822266513e+00,-8.619126319885253906e+00,-4.055777549743651456e+00,-5.668640136718750000e+00,-2.784729003906250000e+00,-4.730224609375000000e-01
3.682365036010742188e+01,4.709394454956054688e+00,-8.619126319885253906e+00,-4.055777549743651456e+00,-3.082275390625000000e+00,2.380371093750000000e+00,-9.155273437500000000e-01
3.684113049507141113e+01,4.752490520477294922e+00,-8.513781547546388495e+00,-4.048594951629638672e+00,-3.082275390625000000e+00,1.945495605468750000e+00,-3.433227539062500000e-01
3.685208177566528320e+01,4.752490520477294922e+00,-8.513781547546388495e+00,-4.048594951629638672e+00,-5.783081054687500000e+00,1.945495605468750000e+00,-3.433227539062500000e-01
3.686603975296020508e+01,4.572925090789794922e+00,-8.939949035644531250e+00,-5.169081211090087891e+00,-5.783081054687500000e+00,-4.882812500000000000e-01,9.307861328125000000e-01
3.688019585609436035e+01,3.821145772933959961e+00,-8.939949035644531250e+00,-5.169081211090087891e+00,-2.937316894531250000e+00,-4.882812500000000000e-01,9.307861328125000000e-01
3.689234352111816406e+01,3.821145772933959961e+00,-8.401253700256347656e+00,-5.331887245178222656e+00,-2.937316894531250000e+00,-4.882812500000000000e-01,9.307861328125000000e-01
3.690802145004272461e+01,4.378994941711426669e+00,-8.401253700256347656e+00,-4.333505153656006748e+00,-6.942749023437500000e+00,-3.128051757812500000e-01,1.846313476562500000e+00
3.692208170890808105e+01,4.378994941711426669e+00,-8.408435821533201349e+00,-4.762067317962647373e+00,-6.942749023437500000e+00,-2.059936523437500000e+00,1.846313476562500000e+00
3.693458962440490723e+01,4.378994941711426669e+00,-8.408435821533201349e+00,-4.333505153656006748e+00,-6.942749023437500000e+00,-2.212524414062500000e-01,2.746582031250000000e-01
3.694700813293457031e+01,4.489128112792968750e+00,-8.408435821533201349e+00,-4.762067317962647373e+00,-2.746582031250000000e+00,-2.059936523437500000e+00,2.746582031250000000e-01
3.696403789520263672e+01,4.735730648040772373e+00,-8.410830497741700995e+00,-4.043806552886962891e+00,-2.746582031250000000e+00,-2.212524414062500000e-01,8.010864257812500000e-01
3.697526264190673828e+01,4.735730648040772373e+00,-8.410830497741700995e+00,-4.247313976287841797e+00,-2.746582031250000000e+00,-2.189636230468750000e+00,3.166198730468750000e+00
3.698871850967407227e+01,4.553771495819091797e+00,-8.410830497741700995e+00,-4.247313976287841797e+00,-4.653930664062500000e+00,2.212524414062500000e+00,8.010864257812500000e-01
3.700602769851684570e+01,4.113238334655761719e+00,-8.856151580810546875e+00,-4.742913722991943359e+00,-4.661560058593750000e+00,-2.532958984375000000e+00,4.631042480468750000e+00
3.701724839210510254e+01,4.553771495819091797e+00,-8.856151580810546875e+00,-4.742913722991943359e+00,-4.653930664062500000e+00,1.007080078125000000e+00,-2.845764160156250000e+00
3.703039121627807617e+01,4.343081951141356534e+00,-8.101978302001951349e+00,-4.323928356170653409e+00,-4.661560058593750000e+00,-2.189636230468750000e+00,4.631042480468750000e+00
3.704275202751159668e+01,4.505887508392333984e+00,-8.101978302001951349e+00,-4.323928356170653409e+00,1.495361328125000000e+00,1.007080078125000000e+00,-2.685546875000000000e+00
3.705744552612304688e+01,4.505887508392333984e+00,-8.101978302001951349e+00,-4.323928356170653409e+00,-6.172180175781250000e+00,-2.189636230468750000e+00,4.486083984375000000e+00
3.706997227668762207e+01,4.505887508392333984e+00,-8.398859024047853339e+00,-5.013458251953125000e+00,-2.441406250000000000e-01,1.533508300781250000e+00,-2.685546875000000000e+00
3.708465003967285156e+01,4.692635059356689453e+00,-8.307879447937013495e+00,-3.766079187393188921e+00,-6.172180175781250000e+00,-2.250671386718750000e+00,4.486083984375000000e+00
3.709963703155517578e+01,4.175487518310546875e+00,-8.398859024047853339e+00,-5.013458251953125000e+00,-2.441406250000000000e-01,1.220703125000000000e-01,3.280639648437500000e+00
3.711195611953735352e+01,4.675875663757324219e+00,-8.307879447937013495e+00,-2.997540473937988281e+00,-8.941650390625000000e+00,1.220703125000000000e-01,3.280639648437500000e+00
3.712670326232910156e+01,3.718195199966431108e+00,-9.133879661560060370e+00,-6.203376293182372159e+00,-3.219604492187500000e+00,1.220703125000000000e-01,-8.392333984375000000e-01
3.713825964927673340e+01,4.675875663757324219e+00,-8.188169479370117188e+00,-3.691859006881713867e+00,-3.219604492187500000e+00,6.027221679687500000e-01,-9.918212890625000000e-01
3.715424799919128418e+01,3.960009574890136719e+00,-8.604761123657228339e+00,-5.736507415771483487e+00,-3.219604492187500000e+00,-2.288818359375000000e-02,-8.392333984375000000e-01
3.716869902610778809e+01,4.340687751770020419e+00,-8.418012619018554688e+00,-3.691859006881713867e+00,-4.386901855468750000e+00,1.762390136718750000e+00,-9.918212890625000000e-01
3.718138957023620605e+01,3.960009574890136719e+00,-8.604761123657228339e+00,-5.736507415771483487e+00,-4.386901855468750000e+00,-3.799438476562500000e+00,3.326416015625000000e+00
3.719609856605529785e+01,4.340687751770020419e+00,-8.418012619018554688e+00,-3.608061790466308594e+00,-4.074096679687500000e+00,2.517700195312500000e+00,-3.334045410156250000e+00
3.720783472061157227e+01,5.094861030578613281e+00,-8.264783859252929688e+00,-3.991134166717528853e+00,-4.074096679687500000e+00,-2.647399902343750000e+00,3.326416015625000000e+00
3.722260642051696777e+01,5.094861030578613281e+00,-8.200140953063964844e+00,-3.991134166717528853e+00,2.670288085937500000e-01,4.653930664062500000e-01,1.571655273437500000e+00
3.723732519149780273e+01,4.225765705108643466e+00,-8.200140953063964844e+00,-4.422090530395507812e+00,-5.226135253906250000e+00,2.212524414062500000e-01,4.180908203125000000e+00
3.724959325790405273e+01,4.041412353515625000e+00,-8.178592681884767401e+00,-4.422090530395507812e+00,-2.349853515625000000e+00,4.653930664062500000e-01,1.571655273437500000e+00
3.726532125473022461e+01,4.041412353515625000e+00,-8.178592681884767401e+00,-4.422090530395507812e+00,-5.226135253906250000e+00,2.212524414062500000e-01,2.143859863281250000e+00
3.727667522430419922e+01,4.276044368743896484e+00,-8.884881973266601562e+00,-4.867412090301513672e+00,-2.349853515625000000e+00,1.434326171875000000e+00,-1.159667968750000000e+00
3.729132437705993652e+01,5.176263809204101562e+00,-8.884881973266601562e+00,-4.867412090301513672e+00,-8.834838867187500000e+00,-1.007080078125000000e+00,2.143859863281250000e+00
3.730725455284118652e+01,4.276044368743896484e+00,-8.693346023559570312e+00,-5.621585369110106534e+00,-2.265930175781250000e+00,1.068115234375000000e-01,1.869201660156250000e+00
3.731856966018676758e+01,4.644751071929931641e+00,-8.307879447937013495e+00,-3.749319791793823242e+00,-2.586364746093750000e+00,1.068115234375000000e-01,1.869201660156250000e+00
3.733336710929870605e+01,3.914519786834716797e+00,-8.307879447937013495e+00,-5.305551052093505859e+00,-2.586364746093750000e+00,1.068115234375000000e-01,1.350402832031250000e+00
3.734576010704040527e+01,4.644751071929931641e+00,-8.180987358093263495e+00,-3.749319791793823242e+00,-3.852844238281250000e+00,1.838684082031250000e+00,1.281738281250000000e+00
3.736131477355957031e+01,4.194641113281250000e+00,-8.180987358093263495e+00,-5.305551052093505859e+00,-5.050659179687500000e+00,-2.891540527343750000e+00,1.281738281250000000e+00
3.737271499633789062e+01,4.862623691558837891e+00,-8.125920295715332031e+00,-3.761290788650512695e+00,-5.050659179687500000e+00,-6.179809570312500000e-01,-5.035400390625000000e-01
3.738780093193054199e+01,4.453215122222900391e+00,-8.848969459533691406e+00,-4.953603267669677734e+00,-5.325317382812500000e+00,-6.179809570312500000e-01,1.983642578125000000e+00
3.739971160888671875e+01,4.496310710906981534e+00,-8.676587104797361505e+00,-4.419696331024169922e+00,-2.021789550781250000e+00,-6.179809570312500000e-01,3.890991210937500000e-01
3.741528916358947754e+01,4.453215122222900391e+00,-8.676587104797361505e+00,-4.802768707275391513e+00,-5.973815917968750000e+00,-6.256103515625000000e-01,2.357482910156250000e+00
3.743209028244018555e+01,4.496310710906981534e+00,-8.449137687683105469e+00,-4.419696331024169922e+00,-2.021789550781250000e+00,-6.256103515625000000e-01,3.890991210937500000e-01
3.744356441497802734e+01,4.541800498962402344e+00,-8.449137687683105469e+00,-4.750096321105957031e+00,-5.973815917968750000e+00,-4.806518554687500000e-01,2.433776855468750000e+00
3.745682048797607422e+01,4.541800498962402344e+00,-8.499416351318361151e+00,-4.750096321105957031e+00,-1.380920410156250000e+00,-4.806518554687500000e-01,3.051757812500000000e-01
3.747113943099975586e+01,4.489128112792968750e+00,-8.499416351318361151e+00,-4.750096321105957031e+00,-5.218505859375000000e+00,-9.765625000000000000e-01,2.868652343750000000e+00
3.748372054100036621e+01,4.254496574401856357e+00,-8.499416351318361151e+00,-4.802768707275391513e+00,-2.922058105468750000e+00,-9.765625000000000000e-01,3.051757812500000000e-01
3.749528956413269043e+01,4.489128112792968750e+00,-8.494627952575683594e+00,-4.572925090789794922e+00,-4.348754882812500000e+00,-9.765625000000000000e-01,1.487731933593750000e+00
3.751310348510742188e+01,4.453215122222900391e+00,-8.494627952575683594e+00,-4.905719280242919922e+00,-2.922058105468750000e+00,3.509521484375000000e-01,-3.051757812500000000e-02
3.752646088600158691e+01,4.505887508392333984e+00,-8.264783859252929688e+00,-4.572925090789794922e+00,-4.348754882812500000e+00,3.509521484375000000e-01,1.358032226562500000e+00
3.753751850128173828e+01,4.453215122222900391e+00,-8.264783859252929688e+00,-4.893748283386231357e+00,-3.540039062500000000e+00,3.509521484375000000e-01,2.288818359375000000e-02
3.755507183074951172e+01,4.505887508392333984e+00,-8.307879447937013495e+00,-4.465186119079589844e+00,-3.540039062500000000e+00,5.340576171875000000e-02,3.814697265625000000e-01
3.756706452369689941e+01,4.572925090789794922e+00,-8.379705429077146661e+00,-4.759673118591308594e+00,-3.105163574218750000e+00,-7.629394531250000000e-03,3.814697265625000000e-01
3.758052396774291992e+01,4.572925090789794922e+00,-8.307879447937013495e+00,-4.302380561828613281e+00,-3.105163574218750000e+00,-7.629394531250000000e-03,9.231567382812500000e-01
3.759421777725219727e+01,4.400542736053466797e+00,-8.339004516601562500e+00,-4.759673118591308594e+00,-4.570007324218750000e+00,-1.098632812500000000e+00,1.457214355468750000e+00
3.760653162002563477e+01,4.369418144226073331e+00,-8.339004516601562500e+00,-4.673481464385986328e+00,-4.570007324218750000e+00,-1.098632812500000000e+00,1.457214355468750000e+00
3.762179589271545410e+01,4.369418144226073331e+00,-8.530540466308593750e+00,-4.817133903503417969e+00,-4.058837890625000000e+00,-1.220703125000000000e+00,1.335144042968750000e+00
3.763613414764404297e+01,4.639962673187255859e+00,-8.530540466308593750e+00,-4.673481464385986328e+00,-3.143310546875000000e+00,7.476806640625000000e-01,2.899169921875000000e-01
3.764874053001403809e+01,4.639962673187255859e+00,-8.530540466308593750e+00,-4.817133903503417969e+00,-3.631591796875000000e+00,2.593994140625000000e-01,1.335144042968750000e+00
3.766030454635620117e+01,4.446032524108886719e+00,-8.207323074340820312e+00,-4.472368717193604404e+00,-3.112792968750000000e+00,2.593994140625000000e-01,2.899169921875000000e-01
3.767598223686218262e+01,4.446032524108886719e+00,-8.415618896484375000e+00,-4.577713489532471591e+00,-3.631591796875000000e+00,-4.653930664062500000e-01,-7.629394531250000000e-03
3.768761253356933594e+01,4.455609321594238281e+00,-8.207323074340820312e+00,-4.436455726623535156e+00,-4.203796386718750000e+00,-4.959106445312500000e-01,-7.629394531250000000e-03
3.770338416099548340e+01,4.620809078216552734e+00,-8.415618896484375000e+00,-4.577713489532471591e+00,-4.203796386718750000e+00,-4.653930664062500000e-01,2.365112304687500000e-01
3.771795964241027832e+01,4.620809078216552734e+00,-8.374917030334472656e+00,-4.441244125366210938e+00,-4.241943359375000000e+00,-4.959106445312500000e-01,1.457214355468750000e+00
3.773015046119689941e+01,4.501099109649658203e+00,-8.374917030334472656e+00,-4.709394454956054688e+00,-3.906250000000000000e+00,-3.433227539062500000e-01,1.457214355468750000e+00
3.774478077888488770e+01,4.486733913421630859e+00,-8.312667846679687500e+00,-4.474762916564941406e+00,-3.906250000000000000e+00,-3.433227539062500000e-01,1.091003417968750000e+00
3.775726342201232910e+01,4.316745758056641513e+00,-8.312667846679687500e+00,-4.781220912933349609e+00,-3.906250000000000000e+00,-3.433227539062500000e-01,1.091003417968750000e+00
3.777158021926879883e+01,4.486733913421630859e+00,-8.360551834106445312e+00,-4.644751071929931641e+00,-3.746032714843750000e+00,3.128051757812500000e-01,1.373291015625000000e-01
3.778665184974670410e+01,4.316745758056641513e+00,-8.360551834106445312e+00,-4.762067317962647373e+00,-4.188537597656250000e+00,-8.468627929687500000e-01,1.289367675781250000e+00
3.779826974868774414e+01,4.532223701477050781e+00,-8.360551834106445312e+00,-4.762067317962647373e+00,-3.265380859375000000e+00,-3.280639648437500000e-01,1.373291015625000000e-01
3.781434369087219238e+01,4.532223701477050781e+00,-8.336609840393066406e+00,-4.762067317962647373e+00,-5.310058593750000000e+00,-3.280639648437500000e-01,1.091003417968750000e+00
3.782611680030822754e+01,4.532223701477050781e+00,-8.382100105285644531e+00,-4.395754337310791016e+00,-3.494262695312500000e+00,-3.280639648437500000e-01,1.091003417968750000e+00
3.784271359443664551e+01,4.402936935424804688e+00,-8.336609840393066406e+00,-4.395754337310791016e+00,-3.692626953125000000e+00,1.098632812500000000e+00,1.091003417968750000e+00
3.785610485076904297e+01,4.402936935424804688e+00,-8.382100105285644531e+00,-4.651933670043945312e+00,-3.692626953125000000e+00,7.171630859375000000e-01,1.831054687500000000e-01
3.786739754676818848e+01,4.414907932281494141e+00,-8.271966934204103339e+00,-4.651933670043945312e+00,-4.310607910156250000e+00,7.171630859375000000e-01,1.831054687500000000e-01
3.788303041458129883e+01,4.541800498962402344e+00,-8.422801017761230469e+00,-4.723759651184082031e+00,-4.310607910156250000e+00,7.171630859375000000e-01,8.010864257812500000e-01
3.789501905441284180e+01,4.541800498962402344e+00,-8.422801017761230469e+00,-4.481945514678955078e+00,-4.310607910156250000e+00,-1.655578613281250000e+00,1.647949218750000000e+00
3.790933847427368164e+01,4.288015365600586826e+00,-8.422801017761230469e+00,-4.838681697845458984e+00,-2.609252929687500000e+00,-1.029968261718750000e+00,8.010864257812500000e-01
3.792431735992431641e+01,4.288015365600586826e+00,-8.470685005187986505e+00,-4.560954093933105469e+00,-3.433227539062500000e+00,-1.029968261718750000e+00,1.831054687500000000e-01
3.793691301345825195e+01,4.560954093933105469e+00,-8.439560890197753906e+00,-4.560954093933105469e+00,-3.433227539062500000e+00,-1.029968261718750000e+00,1.831054687500000000e-01
3.795226192474365234e+01,4.618414878845214844e+00,-8.439560890197753906e+00,-4.560954093933105469e+00,-3.433227539062500000e+00,5.111694335937500000e-01,5.340576171875000000e-01
3.796327066421508789e+01,4.618414878845214844e+00,-8.439560890197753906e+00,-4.620809078216552734e+00,-3.395080566406250000e+00,-4.119873046875000000e-01,1.007080078125000000e+00
3.798096537590026855e+01,4.371812343597412109e+00,-8.358158111572267401e+00,-4.620809078216552734e+00,-3.395080566406250000e+00,-1.144409179687500000e-01,1.007080078125000000e+00
3.799338626861572266e+01,4.371812343597412109e+00,-8.372523307800292969e+00,-4.704606056213378906e+00,-3.944396972656250000e+00,-1.144409179687500000e-01,9.307861328125000000e-01
3.800548505783081055e+01,4.386177539825440341e+00,-8.372523307800292969e+00,-4.678269863128662109e+00,-4.257202148437500000e+00,-1.144409179687500000e-01,9.307861328125000000e-01
3.802309250831604004e+01,4.402936935424804688e+00,-8.396465301513673651e+00,-4.678269863128662109e+00,-3.944396972656250000e+00,-2.822875976562500000e-01,8.239746093750000000e-01
3.803397607803344727e+01,4.436455726623535156e+00,-8.413224220275878906e+00,-4.678269863128662109e+00,-3.677368164062500000e+00,-2.822875976562500000e-01,8.239746093750000000e-01
3.804791450500488281e+01,4.436455726623535156e+00,-8.413224220275878906e+00,-4.707000255584716797e+00,-3.471374511718750000e+00,-2.822875976562500000e-01,8.239746093750000000e-01
3.806200385093688965e+01,4.434061527252197266e+00,-8.348581314086914062e+00,-4.707000255584716797e+00,-3.189086914062500000e+00,3.814697265625000000e-02,7.095336914062500000e-01
3.807519173622131348e+01,4.434061527252197266e+00,-8.348581314086914062e+00,-4.683058261871337891e+00,-3.189086914062500000e+00,-7.171630859375000000e-01,9.765625000000000000e-01
3.809005045890808105e+01,4.453215122222900391e+00,-8.259995460510253906e+00,-4.556165695190429688e+00,-3.616333007812500000e+00,-6.256103515625000000e-01,5.035400390625000000e-01
3.810416460037231445e+01,4.537012100219726562e+00,-8.477868080139160156e+00,-4.563348293304443359e+00,-3.684997558593750000e+00,-6.256103515625000000e-01,9.765625000000000000e-01
3.811666011810302734e+01,4.537012100219726562e+00,-8.456319808959960938e+00,-4.556165695190429688e+00,-3.684997558593750000e+00,-4.043579101562500000e-01,9.841918945312500000e-01
3.812863492965698242e+01,4.537012100219726562e+00,-8.456319808959960938e+00,-4.541800498962402344e+00,-3.768920898437500000e+00,1.754760742187500000e-01,1.319885253906250000e+00
3.814598512649536133e+01,4.414907932281494141e+00,-8.360551834106445312e+00,-4.541800498962402344e+00,-3.807067871093750000e+00,-1.220703125000000000e-01,1.319885253906250000e+00
3.815833020210266113e+01,4.378994941711426669e+00,-8.322244644165039062e+00,-4.627991676330566406e+00,-3.807067871093750000e+00,-1.220703125000000000e-01,8.163452148437500000e-01
3.817127513885498047e+01,4.378994941711426669e+00,-8.360551834106445312e+00,-4.678269863128662109e+00,-3.807067871093750000e+00,-1.220703125000000000e-01,8.010864257812500000e-01
