# elapsed time, f1_acc_x, f1_acc_y, f1_acc_z, f1_gyro_x, f1_gyro_y, f1_gyro_z
2.655941843986511230e+01,6.423643112182617188e+00,-1.295263051986694336e+00,7.639897346496582031e+00,8.037567138671875000e+01,-1.573333740234375000e+02,5.931854248046875000e+01
2.657094359397888184e+01,6.423643112182617188e+00,-1.295263051986694336e+00,7.639897346496582031e+00,8.037567138671875000e+01,-1.573333740234375000e+02,5.931854248046875000e+01
2.658173847198486328e+01,6.423643112182617188e+00,-1.295263051986694336e+00,7.639897346496582031e+00,8.037567138671875000e+01,-1.573333740234375000e+02,5.931854248046875000e+01
2.659447693824768066e+01,6.423643112182617188e+00,-1.295263051986694336e+00,7.639897346496582031e+00,8.037567138671875000e+01,-1.573333740234375000e+02,5.931854248046875000e+01
2.660632658004760742e+01,6.423643112182617188e+00,-1.295263051986694336e+00,7.639897346496582031e+00,8.037567138671875000e+01,-1.573333740234375000e+02,5.931854248046875000e+01
2.661688137054443359e+01,6.423643112182617188e+00,-1.295263051986694336e+00,7.639897346496582031e+00,8.037567138671875000e+01,-1.573333740234375000e+02,5.931854248046875000e+01
2.662844204902648926e+01,6.423643112182617188e+00,-1.295263051986694336e+00,7.639897346496582031e+00,8.037567138671875000e+01,-1.573333740234375000e+02,5.931854248046875000e+01
2.663990378379821777e+01,6.423643112182617188e+00,-1.295263051986694336e+00,7.639897346496582031e+00,8.037567138671875000e+01,-1.573333740234375000e+02,5.931854248046875000e+01
2.665002822875976562e+01,6.423643112182617188e+00,-1.295263051986694336e+00,7.639897346496582031e+00,8.037567138671875000e+01,-1.573333740234375000e+02,5.931854248046875000e+01
2.666130256652832031e+01,6.423643112182617188e+00,-1.295263051986694336e+00,7.639897346496582031e+00,8.037567138671875000e+01,-1.573333740234375000e+02,5.931854248046875000e+01
2.667279887199401855e+01,6.423643112182617188e+00,-1.295263051986694336e+00,7.639897346496582031e+00,8.037567138671875000e+01,-1.573333740234375000e+02,5.931854248046875000e+01
2.668416810035705566e+01,6.423643112182617188e+00,-1.295263051986694336e+00,7.639897346496582031e+00,8.037567138671875000e+01,-1.573333740234375000e+02,5.931854248046875000e+01
2.669556641578674316e+01,6.423643112182617188e+00,-1.295263051986694336e+00,7.639897346496582031e+00,8.037567138671875000e+01,-1.573333740234375000e+02,5.931854248046875000e+01
2.670705080032348633e+01,6.423643112182617188e+00,-1.295263051986694336e+00,7.639897346496582031e+00,8.037567138671875000e+01,-1.573333740234375000e+02,5.931854248046875000e+01
2.672229623794555664e+01,6.423643112182617188e+00,-1.295263051986694336e+00,7.639897346496582031e+00,8.037567138671875000e+01,-1.573333740234375000e+02,5.931854248046875000e+01
2.673411345481872559e+01,6.423643112182617188e+00,-1.295263051986694336e+00,7.639897346496582031e+00,8.037567138671875000e+01,-1.573333740234375000e+02,5.931854248046875000e+01
2.674504637718200684e+01,6.423643112182617188e+00,-1.295263051986694336e+00,7.639897346496582031e+00,8.037567138671875000e+01,-1.573333740234375000e+02,5.931854248046875000e+01
2.675623202323913574e+01,6.423643112182617188e+00,-1.295263051986694336e+00,7.639897346496582031e+00,8.037567138671875000e+01,-1.573333740234375000e+02,5.931854248046875000e+01
2.676791048049926758e+01,6.423643112182617188e+00,-1.295263051986694336e+00,7.639897346496582031e+00,8.037567138671875000e+01,-1.573333740234375000e+02,5.931854248046875000e+01
2.677903294563293457e+01,6.423643112182617188e+00,-1.295263051986694336e+00,7.639897346496582031e+00,8.037567138671875000e+01,-1.573333740234375000e+02,5.931854248046875000e+01
2.679059982299804688e+01,6.423643112182617188e+00,-1.295263051986694336e+00,7.639897346496582031e+00,8.037567138671875000e+01,-1.573333740234375000e+02,5.931854248046875000e+01
2.680227136611938477e+01,6.423643112182617188e+00,-1.295263051986694336e+00,7.639897346496582031e+00,8.037567138671875000e+01,-1.573333740234375000e+02,5.931854248046875000e+01
2.681354188919067383e+01,6.423643112182617188e+00,-1.295263051986694336e+00,7.639897346496582031e+00,8.037567138671875000e+01,-1.573333740234375000e+02,5.931854248046875000e+01
2.682472014427185059e+01,6.423643112182617188e+00,-1.295263051986694336e+00,7.639897346496582031e+00,8.037567138671875000e+01,-1.573333740234375000e+02,5.931854248046875000e+01
2.683617258071899414e+01,6.423643112182617188e+00,-1.295263051986694336e+00,7.639897346496582031e+00,8.037567138671875000e+01,-1.573333740234375000e+02,5.931854248046875000e+01
2.684746170043945312e+01,6.423643112182617188e+00,-1.295263051986694336e+00,7.639897346496582031e+00,8.037567138671875000e+01,-1.573333740234375000e+02,5.931854248046875000e+01
2.685846257209777832e+01,6.423643112182617188e+00,-1.295263051986694336e+00,7.639897346496582031e+00,8.037567138671875000e+01,-1.573333740234375000e+02,5.931854248046875000e+01
2.686883497238159180e+01,6.423643112182617188e+00,-1.295263051986694336e+00,7.639897346496582031e+00,8.037567138671875000e+01,-1.573333740234375000e+02,5.931854248046875000e+01
2.687975358963012695e+01,6.423643112182617188e+00,-1.295263051986694336e+00,7.639897346496582031e+00,8.037567138671875000e+01,-1.573333740234375000e+02,5.931854248046875000e+01
2.689089417457580566e+01,6.423643112182617188e+00,-1.295263051986694336e+00,7.639897346496582031e+00,8.037567138671875000e+01,-1.573333740234375000e+02,5.931854248046875000e+01
2.690172123908996582e+01,6.423643112182617188e+00,-1.295263051986694336e+00,7.639897346496582031e+00,8.037567138671875000e+01,-1.573333740234375000e+02,5.931854248046875000e+01
2.691307950019836426e+01,6.423643112182617188e+00,-1.295263051986694336e+00,7.639897346496582031e+00,8.037567138671875000e+01,-1.573333740234375000e+02,5.931854248046875000e+01
2.692472743988037109e+01,6.423643112182617188e+00,-1.295263051986694336e+00,7.639897346496582031e+00,8.037567138671875000e+01,-1.573333740234375000e+02,5.931854248046875000e+01
2.693611812591552734e+01,6.423643112182617188e+00,-1.295263051986694336e+00,7.639897346496582031e+00,8.037567138671875000e+01,-1.573333740234375000e+02,5.931854248046875000e+01
2.694745349884033203e+01,6.423643112182617188e+00,-1.295263051986694336e+00,7.639897346496582031e+00,8.037567138671875000e+01,-1.573333740234375000e+02,5.931854248046875000e+01
2.695845556259155273e+01,6.423643112182617188e+00,-1.295263051986694336e+00,7.639897346496582031e+00,8.037567138671875000e+01,-1.573333740234375000e+02,5.931854248046875000e+01
2.697023415565490723e+01,6.423643112182617188e+00,-1.295263051986694336e+00,7.639897346496582031e+00,8.037567138671875000e+01,-1.573333740234375000e+02,5.931854248046875000e+01
2.698143386840820312e+01,6.423643112182617188e+00,-1.295263051986694336e+00,7.639897346496582031e+00,8.037567138671875000e+01,-1.573333740234375000e+02,5.931854248046875000e+01
2.699259352684020996e+01,6.423643112182617188e+00,-1.295263051986694336e+00,7.639897346496582031e+00,8.037567138671875000e+01,-1.573333740234375000e+02,5.931854248046875000e+01
2.700360870361328125e+01,6.423643112182617188e+00,-1.295263051986694336e+00,7.639897346496582031e+00,8.037567138671875000e+01,-1.573333740234375000e+02,5.931854248046875000e+01
2.701737022399902344e+01,6.423643112182617188e+00,-1.295263051986694336e+00,7.639897346496582031e+00,8.037567138671875000e+01,-1.573333740234375000e+02,5.931854248046875000e+01
2.702833390235900879e+01,6.423643112182617188e+00,-1.295263051986694336e+00,7.639897346496582031e+00,8.037567138671875000e+01,-1.573333740234375000e+02,5.931854248046875000e+01
2.703949737548828125e+01,6.423643112182617188e+00,-1.295263051986694336e+00,7.639897346496582031e+00,8.037567138671875000e+01,-1.573333740234375000e+02,5.931854248046875000e+01
2.705051445960998535e+01,6.423643112182617188e+00,-1.295263051986694336e+00,7.639897346496582031e+00,8.037567138671875000e+01,-1.573333740234375000e+02,5.931854248046875000e+01
2.706133294105529785e+01,6.423643112182617188e+00,-1.295263051986694336e+00,7.639897346496582031e+00,8.037567138671875000e+01,-1.573333740234375000e+02,5.931854248046875000e+01
2.707265210151672363e+01,6.423643112182617188e+00,-1.295263051986694336e+00,7.639897346496582031e+00,8.037567138671875000e+01,-1.573333740234375000e+02,5.931854248046875000e+01
2.708649373054504395e+01,6.423643112182617188e+00,-1.295263051986694336e+00,7.639897346496582031e+00,8.037567138671875000e+01,-1.573333740234375000e+02,5.931854248046875000e+01
2.709764456748962402e+01,6.423643112182617188e+00,-1.295263051986694336e+00,7.639897346496582031e+00,8.037567138671875000e+01,-1.573333740234375000e+02,5.931854248046875000e+01
2.710885787010192871e+01,6.423643112182617188e+00,-1.295263051986694336e+00,7.639897346496582031e+00,8.037567138671875000e+01,-1.573333740234375000e+02,5.931854248046875000e+01
2.712123942375183105e+01,6.423643112182617188e+00,-1.295263051986694336e+00,7.639897346496582031e+00,8.037567138671875000e+01,-1.573333740234375000e+02,5.931854248046875000e+01
2.713240003585815430e+01,6.423643112182617188e+00,-1.295263051986694336e+00,7.639897346496582031e+00,8.037567138671875000e+01,-1.573333740234375000e+02,5.931854248046875000e+01
2.714302253723144531e+01,6.423643112182617188e+00,-1.295263051986694336e+00,7.639897346496582031e+00,8.037567138671875000e+01,-1.573333740234375000e+02,5.931854248046875000e+01
2.715544080734252930e+01,6.423643112182617188e+00,-1.295263051986694336e+00,7.639897346496582031e+00,8.037567138671875000e+01,-1.573333740234375000e+02,5.931854248046875000e+01
2.716663670539855957e+01,6.423643112182617188e+00,-1.295263051986694336e+00,7.639897346496582031e+00,8.037567138671875000e+01,-1.573333740234375000e+02,5.931854248046875000e+01
2.717855381965637207e+01,6.423643112182617188e+00,-1.295263051986694336e+00,7.639897346496582031e+00,8.037567138671875000e+01,-1.573333740234375000e+02,5.931854248046875000e+01
2.718987655639648438e+01,6.423643112182617188e+00,-1.295263051986694336e+00,7.639897346496582031e+00,8.037567138671875000e+01,-1.573333740234375000e+02,5.931854248046875000e+01
2.720212149620056152e+01,6.423643112182617188e+00,-1.295263051986694336e+00,7.639897346496582031e+00,8.037567138671875000e+01,-1.573333740234375000e+02,5.931854248046875000e+01
2.721366453170776367e+01,6.423643112182617188e+00,-1.295263051986694336e+00,7.639897346496582031e+00,8.037567138671875000e+01,-1.573333740234375000e+02,5.931854248046875000e+01
2.722498583793640137e+01,6.423643112182617188e+00,-1.295263051986694336e+00,7.639897346496582031e+00,8.037567138671875000e+01,-1.573333740234375000e+02,5.931854248046875000e+01
2.723642468452453613e+01,6.423643112182617188e+00,-1.295263051986694336e+00,7.639897346496582031e+00,8.037567138671875000e+01,-1.573333740234375000e+02,5.931854248046875000e+01
2.724748802185058594e+01,6.423643112182617188e+00,-1.295263051986694336e+00,7.639897346496582031e+00,8.037567138671875000e+01,-1.573333740234375000e+02,5.931854248046875000e+01
2.725867819786071777e+01,6.423643112182617188e+00,-1.295263051986694336e+00,7.639897346496582031e+00,8.037567138671875000e+01,-1.573333740234375000e+02,5.931854248046875000e+01
2.726984643936157227e+01,6.423643112182617188e+00,-1.295263051986694336e+00,7.639897346496582031e+00,8.037567138671875000e+01,-1.573333740234375000e+02,5.931854248046875000e+01
2.728132128715515137e+01,6.423643112182617188e+00,-1.295263051986694336e+00,7.639897346496582031e+00,8.037567138671875000e+01,-1.573333740234375000e+02,5.931854248046875000e+01
2.729301071166992188e+01,6.423643112182617188e+00,-1.295263051986694336e+00,7.639897346496582031e+00,8.037567138671875000e+01,-1.573333740234375000e+02,5.931854248046875000e+01
2.730490136146545410e+01,6.423643112182617188e+00,-1.295263051986694336e+00,7.639897346496582031e+00,8.037567138671875000e+01,-1.573333740234375000e+02,5.931854248046875000e+01
2.731646037101745605e+01,6.423643112182617188e+00,-1.295263051986694336e+00,7.639897346496582031e+00,8.037567138671875000e+01,-1.573333740234375000e+02,5.931854248046875000e+01
2.732800388336181641e+01,6.423643112182617188e+00,-1.295263051986694336e+00,7.639897346496582031e+00,8.037567138671875000e+01,-1.573333740234375000e+02,5.931854248046875000e+01
2.733960199356079102e+01,6.423643112182617188e+00,-1.295263051986694336e+00,7.639897346496582031e+00,8.037567138671875000e+01,-1.573333740234375000e+02,5.931854248046875000e+01
2.735065698623657227e+01,6.423643112182617188e+00,-1.295263051986694336e+00,7.639897346496582031e+00,8.037567138671875000e+01,-1.573333740234375000e+02,5.931854248046875000e+01
2.736158466339111328e+01,6.423643112182617188e+00,-1.295263051986694336e+00,7.639897346496582031e+00,8.037567138671875000e+01,-1.573333740234375000e+02,5.931854248046875000e+01
2.737289452552795410e+01,6.423643112182617188e+00,-1.295263051986694336e+00,7.639897346496582031e+00,8.037567138671875000e+01,-1.573333740234375000e+02,5.931854248046875000e+01
2.738432693481445312e+01,6.423643112182617188e+00,-1.295263051986694336e+00,7.639897346496582031e+00,8.037567138671875000e+01,-1.573333740234375000e+02,5.931854248046875000e+01
2.739563632011413574e+01,6.423643112182617188e+00,-1.295263051986694336e+00,7.639897346496582031e+00,8.037567138671875000e+01,-1.573333740234375000e+02,5.931854248046875000e+01
2.740662193298339844e+01,6.423643112182617188e+00,-1.295263051986694336e+00,7.639897346496582031e+00,8.037567138671875000e+01,-1.573333740234375000e+02,5.931854248046875000e+01
2.741778278350830078e+01,6.423643112182617188e+00,-1.295263051986694336e+00,7.639897346496582031e+00,8.037567138671875000e+01,-1.573333740234375000e+02,5.931854248046875000e+01
2.742936444282531738e+01,6.423643112182617188e+00,-1.295263051986694336e+00,7.639897346496582031e+00,8.037567138671875000e+01,-1.573333740234375000e+02,5.931854248046875000e+01
2.744128489494323730e+01,6.423643112182617188e+00,-1.295263051986694336e+00,7.639897346496582031e+00,8.037567138671875000e+01,-1.573333740234375000e+02,5.931854248046875000e+01
2.745267224311828613e+01,6.423643112182617188e+00,-1.295263051986694336e+00,7.639897346496582031e+00,8.037567138671875000e+01,-1.573333740234375000e+02,5.931854248046875000e+01
2.746426677703857422e+01,6.423643112182617188e+00,-1.295263051986694336e+00,7.639897346496582031e+00,8.037567138671875000e+01,-1.573333740234375000e+02,5.931854248046875000e+01
2.747591948509216309e+01,6.423643112182617188e+00,-1.295263051986694336e+00,7.639897346496582031e+00,8.037567138671875000e+01,-1.573333740234375000e+02,5.931854248046875000e+01
2.748704385757446289e+01,6.423643112182617188e+00,-1.295263051986694336e+00,7.639897346496582031e+00,8.037567138671875000e+01,-1.573333740234375000e+02,5.931854248046875000e+01
2.749854373931884766e+01,6.423643112182617188e+00,-1.295263051986694336e+00,7.639897346496582031e+00,8.037567138671875000e+01,-1.573333740234375000e+02,5.931854248046875000e+01
2.750936079025268555e+01,6.423643112182617188e+00,-1.295263051986694336e+00,7.639897346496582031e+00,8.037567138671875000e+01,-1.573333740234375000e+02,5.931854248046875000e+01
2.752048730850219727e+01,6.423643112182617188e+00,-1.295263051986694336e+00,7.639897346496582031e+00,8.037567138671875000e+01,-1.573333740234375000e+02,5.931854248046875000e+01
2.753202414512634277e+01,6.423643112182617188e+00,-1.295263051986694336e+00,7.639897346496582031e+00,8.037567138671875000e+01,-1.573333740234375000e+02,5.931854248046875000e+01
2.754565834999084473e+01,6.423643112182617188e+00,-1.295263051986694336e+00,7.639897346496582031e+00,8.037567138671875000e+01,-1.573333740234375000e+02,5.931854248046875000e+01
2.755733132362365723e+01,6.423643112182617188e+00,-1.295263051986694336e+00,7.639897346496582031e+00,8.037567138671875000e+01,-1.573333740234375000e+02,5.931854248046875000e+01
2.756859922409057617e+01,6.423643112182617188e+00,-1.295263051986694336e+00,7.639897346496582031e+00,8.037567138671875000e+01,-1.573333740234375000e+02,5.931854248046875000e+01
2.758003997802734375e+01,6.423643112182617188e+00,-1.295263051986694336e+00,7.639897346496582031e+00,8.037567138671875000e+01,-1.573333740234375000e+02,5.931854248046875000e+01
2.759146308898925781e+01,6.423643112182617188e+00,-1.295263051986694336e+00,7.639897346496582031e+00,8.037567138671875000e+01,-1.573333740234375000e+02,5.931854248046875000e+01
2.760269427299499512e+01,6.423643112182617188e+00,-1.295263051986694336e+00,7.639897346496582031e+00,8.037567138671875000e+01,-1.573333740234375000e+02,5.931854248046875000e+01
2.761444807052612305e+01,6.423643112182617188e+00,-1.295263051986694336e+00,7.639897346496582031e+00,8.037567138671875000e+01,-1.573333740234375000e+02,5.931854248046875000e+01
2.762664127349853516e+01,6.423643112182617188e+00,-1.295263051986694336e+00,7.639897346496582031e+00,8.037567138671875000e+01,-1.573333740234375000e+02,5.931854248046875000e+01
2.763801121711730957e+01,6.423643112182617188e+00,-1.295263051986694336e+00,7.639897346496582031e+00,8.037567138671875000e+01,-1.573333740234375000e+02,5.931854248046875000e+01
2.764915275573730469e+01,6.423643112182617188e+00,-1.295263051986694336e+00,7.639897346496582031e+00,8.037567138671875000e+01,-1.573333740234375000e+02,5.931854248046875000e+01
2.765992498397827148e+01,6.423643112182617188e+00,-1.295263051986694336e+00,7.639897346496582031e+00,8.037567138671875000e+01,-1.573333740234375000e+02,5.931854248046875000e+01
2.767132759094238281e+01,6.423643112182617188e+00,-1.295263051986694336e+00,7.639897346496582031e+00,8.037567138671875000e+01,-1.573333740234375000e+02,5.931854248046875000e+01
2.768343329429626465e+01,6.423643112182617188e+00,-1.295263051986694336e+00,7.639897346496582031e+00,8.037567138671875000e+01,-1.573333740234375000e+02,5.931854248046875000e+01
2.769434809684753418e+01,6.423643112182617188e+00,-1.295263051986694336e+00,7.639897346496582031e+00,8.037567138671875000e+01,-1.573333740234375000e+02,5.931854248046875000e+01
2.770575547218322754e+01,6.423643112182617188e+00,-1.295263051986694336e+00,7.639897346496582031e+00,8.037567138671875000e+01,-1.573333740234375000e+02,5.931854248046875000e+01
2.771705698966979980e+01,6.423643112182617188e+00,-1.295263051986694336e+00,7.639897346496582031e+00,8.037567138671875000e+01,-1.573333740234375000e+02,5.931854248046875000e+01
2.772801756858825684e+01,6.423643112182617188e+00,-1.295263051986694336e+00,7.639897346496582031e+00,8.037567138671875000e+01,-1.573333740234375000e+02,5.931854248046875000e+01
2.773993301391601562e+01,6.423643112182617188e+00,-1.295263051986694336e+00,7.639897346496582031e+00,8.037567138671875000e+01,-1.573333740234375000e+02,5.931854248046875000e+01
2.775120496749877930e+01,6.423643112182617188e+00,-1.295263051986694336e+00,7.639897346496582031e+00,8.037567138671875000e+01,-1.573333740234375000e+02,5.931854248046875000e+01
2.776276683807373047e+01,6.423643112182617188e+00,-1.295263051986694336e+00,7.639897346496582031e+00,8.037567138671875000e+01,-1.573333740234375000e+02,5.931854248046875000e+01
2.777443552017211914e+01,6.423643112182617188e+00,-1.295263051986694336e+00,7.639897346496582031e+00,8.037567138671875000e+01,-1.573333740234375000e+02,5.931854248046875000e+01
2.778639626502990723e+01,6.423643112182617188e+00,-1.295263051986694336e+00,7.639897346496582031e+00,8.037567138671875000e+01,-1.573333740234375000e+02,5.931854248046875000e+01
2.779799747467041016e+01,6.423643112182617188e+00,-1.295263051986694336e+00,7.639897346496582031e+00,8.037567138671875000e+01,-1.573333740234375000e+02,5.931854248046875000e+01
2.780924201011657715e+01,6.423643112182617188e+00,-1.295263051986694336e+00,7.639897346496582031e+00,8.037567138671875000e+01,-1.573333740234375000e+02,5.931854248046875000e+01
2.782042694091796875e+01,6.423643112182617188e+00,-1.295263051986694336e+00,7.639897346496582031e+00,8.037567138671875000e+01,-1.573333740234375000e+02,5.931854248046875000e+01
2.783220291137695312e+01,6.423643112182617188e+00,-1.295263051986694336e+00,7.639897346496582031e+00,8.037567138671875000e+01,-1.573333740234375000e+02,5.931854248046875000e+01
2.784376668930053711e+01,6.423643112182617188e+00,-1.295263051986694336e+00,7.639897346496582031e+00,8.037567138671875000e+01,-1.573333740234375000e+02,5.931854248046875000e+01
2.785499215126037598e+01,6.423643112182617188e+00,-1.295263051986694336e+00,7.639897346496582031e+00,8.037567138671875000e+01,-1.573333740234375000e+02,5.931854248046875000e+01
2.786636543273925781e+01,6.423643112182617188e+00,-1.295263051986694336e+00,7.639897346496582031e+00,8.037567138671875000e+01,-1.573333740234375000e+02,5.931854248046875000e+01
2.787709474563598633e+01,6.423643112182617188e+00,-1.295263051986694336e+00,7.639897346496582031e+00,8.037567138671875000e+01,-1.573333740234375000e+02,5.931854248046875000e+01
2.788828325271606445e+01,6.423643112182617188e+00,-1.295263051986694336e+00,7.639897346496582031e+00,8.037567138671875000e+01,-1.573333740234375000e+02,5.931854248046875000e+01
2.789995956420898438e+01,6.423643112182617188e+00,-1.295263051986694336e+00,7.639897346496582031e+00,8.037567138671875000e+01,-1.573333740234375000e+02,5.931854248046875000e+01
2.791103959083557129e+01,6.423643112182617188e+00,-1.295263051986694336e+00,7.639897346496582031e+00,8.037567138671875000e+01,-1.573333740234375000e+02,5.931854248046875000e+01
2.792244863510131836e+01,6.423643112182617188e+00,-1.295263051986694336e+00,7.639897346496582031e+00,8.037567138671875000e+01,-1.573333740234375000e+02,5.931854248046875000e+01
2.793405079841613770e+01,6.423643112182617188e+00,-1.295263051986694336e+00,7.639897346496582031e+00,8.037567138671875000e+01,-1.573333740234375000e+02,5.931854248046875000e+01
2.794688940048217773e+01,6.423643112182617188e+00,-1.295263051986694336e+00,7.639897346496582031e+00,8.037567138671875000e+01,-1.573333740234375000e+02,5.931854248046875000e+01
2.795792198181152344e+01,6.423643112182617188e+00,-1.295263051986694336e+00,7.639897346496582031e+00,8.037567138671875000e+01,-1.573333740234375000e+02,5.931854248046875000e+01
2.796917748451232910e+01,6.423643112182617188e+00,-1.295263051986694336e+00,7.639897346496582031e+00,8.037567138671875000e+01,-1.573333740234375000e+02,5.931854248046875000e+01
2.798034715652465820e+01,6.423643112182617188e+00,-1.295263051986694336e+00,7.639897346496582031e+00,8.037567138671875000e+01,-1.573333740234375000e+02,5.931854248046875000e+01
2.799208021163940430e+01,6.423643112182617188e+00,-1.295263051986694336e+00,7.639897346496582031e+00,8.037567138671875000e+01,-1.573333740234375000e+02,5.931854248046875000e+01
2.800545382499694824e+01,6.423643112182617188e+00,-1.295263051986694336e+00,7.639897346496582031e+00,8.037567138671875000e+01,-1.573333740234375000e+02,5.931854248046875000e+01
2.801686716079711914e+01,6.423643112182617188e+00,-1.295263051986694336e+00,7.639897346496582031e+00,8.037567138671875000e+01,-1.573333740234375000e+02,5.931854248046875000e+01
2.802825331687927246e+01,6.423643112182617188e+00,-1.295263051986694336e+00,7.639897346496582031e+00,8.037567138671875000e+01,-1.573333740234375000e+02,5.931854248046875000e+01
2.803936171531677246e+01,6.423643112182617188e+00,-1.295263051986694336e+00,7.639897346496582031e+00,8.037567138671875000e+01,-1.573333740234375000e+02,5.931854248046875000e+01
2.805047750473022461e+01,6.423643112182617188e+00,-1.295263051986694336e+00,7.639897346496582031e+00,8.037567138671875000e+01,-1.573333740234375000e+02,5.931854248046875000e+01
2.806142401695251465e+01,6.423643112182617188e+00,-1.295263051986694336e+00,7.639897346496582031e+00,8.037567138671875000e+01,-1.573333740234375000e+02,5.931854248046875000e+01
2.807340264320373535e+01,6.423643112182617188e+00,-1.295263051986694336e+00,7.639897346496582031e+00,8.037567138671875000e+01,-1.573333740234375000e+02,5.931854248046875000e+01
2.808456301689147949e+01,6.423643112182617188e+00,-1.295263051986694336e+00,7.639897346496582031e+00,8.037567138671875000e+01,-1.573333740234375000e+02,5.931854248046875000e+01
2.809592676162719727e+01,6.423643112182617188e+00,-1.295263051986694336e+00,7.639897346496582031e+00,8.037567138671875000e+01,-1.573333740234375000e+02,5.931854248046875000e+01
2.810720086097717285e+01,6.423643112182617188e+00,-1.295263051986694336e+00,7.639897346496582031e+00,8.037567138671875000e+01,-1.573333740234375000e+02,5.931854248046875000e+01
2.811872243881225586e+01,6.423643112182617188e+00,-1.295263051986694336e+00,7.639897346496582031e+00,8.037567138671875000e+01,-1.573333740234375000e+02,5.931854248046875000e+01
2.813051390647888184e+01,6.423643112182617188e+00,-1.295263051986694336e+00,7.639897346496582031e+00,8.037567138671875000e+01,-1.573333740234375000e+02,5.931854248046875000e+01
2.814155197143554688e+01,6.423643112182617188e+00,-1.295263051986694336e+00,7.639897346496582031e+00,8.037567138671875000e+01,-1.573333740234375000e+02,5.931854248046875000e+01
2.815276789665222168e+01,6.423643112182617188e+00,-1.295263051986694336e+00,7.639897346496582031e+00,8.037567138671875000e+01,-1.573333740234375000e+02,5.931854248046875000e+01
2.816404795646667480e+01,6.423643112182617188e+00,-1.295263051986694336e+00,7.639897346496582031e+00,8.037567138671875000e+01,-1.573333740234375000e+02,5.931854248046875000e+01
2.817536425590515137e+01,6.423643112182617188e+00,-1.295263051986694336e+00,7.639897346496582031e+00,8.037567138671875000e+01,-1.573333740234375000e+02,5.931854248046875000e+01
2.818661642074584961e+01,6.423643112182617188e+00,-1.295263051986694336e+00,7.639897346496582031e+00,8.037567138671875000e+01,-1.573333740234375000e+02,5.931854248046875000e+01
2.819782948493957520e+01,6.423643112182617188e+00,-1.295263051986694336e+00,7.639897346496582031e+00,8.037567138671875000e+01,-1.573333740234375000e+02,5.931854248046875000e+01
2.820949387550354004e+01,6.423643112182617188e+00,-1.295263051986694336e+00,7.639897346496582031e+00,8.037567138671875000e+01,-1.573333740234375000e+02,5.931854248046875000e+01
2.822125005722045898e+01,6.423643112182617188e+00,-1.295263051986694336e+00,7.639897346496582031e+00,8.037567138671875000e+01,-1.573333740234375000e+02,5.931854248046875000e+01
2.823197031021118164e+01,6.423643112182617188e+00,-1.295263051986694336e+00,7.639897346496582031e+00,8.037567138671875000e+01,-1.573333740234375000e+02,5.931854248046875000e+01
2.824331688880920410e+01,6.423643112182617188e+00,-1.295263051986694336e+00,7.639897346496582031e+00,8.037567138671875000e+01,-1.573333740234375000e+02,5.931854248046875000e+01
2.825502991676330566e+01,6.423643112182617188e+00,-1.295263051986694336e+00,7.639897346496582031e+00,8.037567138671875000e+01,-1.573333740234375000e+02,5.931854248046875000e+01
2.826573586463928223e+01,6.423643112182617188e+00,-1.295263051986694336e+00,7.639897346496582031e+00,8.037567138671875000e+01,-1.573333740234375000e+02,5.931854248046875000e+01
2.827689480781555176e+01,6.423643112182617188e+00,-1.295263051986694336e+00,7.639897346496582031e+00,8.037567138671875000e+01,-1.573333740234375000e+02,5.931854248046875000e+01
2.828815269470214844e+01,6.423643112182617188e+00,-1.295263051986694336e+00,7.639897346496582031e+00,8.037567138671875000e+01,-1.573333740234375000e+02,5.931854248046875000e+01
2.829956340789794922e+01,6.423643112182617188e+00,-1.295263051986694336e+00,7.639897346496582031e+00,8.037567138671875000e+01,-1.573333740234375000e+02,5.931854248046875000e+01
2.831070995330810547e+01,6.423643112182617188e+00,-1.295263051986694336e+00,7.639897346496582031e+00,8.037567138671875000e+01,-1.573333740234375000e+02,5.931854248046875000e+01
2.832322883605957031e+01,6.423643112182617188e+00,-1.295263051986694336e+00,7.639897346496582031e+00,8.037567138671875000e+01,-1.573333740234375000e+02,5.931854248046875000e+01
2.833532285690307617e+01,6.423643112182617188e+00,-1.295263051986694336e+00,7.639897346496582031e+00,8.037567138671875000e+01,-1.573333740234375000e+02,5.931854248046875000e+01
2.834643411636352539e+01,6.423643112182617188e+00,-1.295263051986694336e+00,7.639897346496582031e+00,8.037567138671875000e+01,-1.573333740234375000e+02,5.931854248046875000e+01
2.835753011703491211e+01,6.423643112182617188e+00,-1.295263051986694336e+00,7.639897346496582031e+00,8.037567138671875000e+01,-1.573333740234375000e+02,5.931854248046875000e+01
2.836890506744384766e+01,6.423643112182617188e+00,-1.295263051986694336e+00,7.639897346496582031e+00,8.037567138671875000e+01,-1.573333740234375000e+02,5.931854248046875000e+01
2.838015937805175781e+01,6.423643112182617188e+00,-1.295263051986694336e+00,7.639897346496582031e+00,8.037567138671875000e+01,-1.573333740234375000e+02,5.931854248046875000e+01
2.839117932319641113e+01,6.423643112182617188e+00,-1.295263051986694336e+00,7.639897346496582031e+00,8.037567138671875000e+01,-1.573333740234375000e+02,5.931854248046875000e+01
2.840255212783813477e+01,6.423643112182617188e+00,-1.295263051986694336e+00,7.639897346496582031e+00,8.037567138671875000e+01,-1.573333740234375000e+02,5.931854248046875000e+01
2.841449141502380371e+01,6.423643112182617188e+00,-1.295263051986694336e+00,7.639897346496582031e+00,8.037567138671875000e+01,-1.573333740234375000e+02,5.931854248046875000e+01
2.842600822448730469e+01,6.423643112182617188e+00,-1.295263051986694336e+00,7.639897346496582031e+00,8.037567138671875000e+01,-1.573333740234375000e+02,5.931854248046875000e+01
2.843755602836608887e+01,6.423643112182617188e+00,-1.295263051986694336e+00,7.639897346496582031e+00,8.037567138671875000e+01,-1.573333740234375000e+02,5.931854248046875000e+01
2.844869470596313477e+01,6.423643112182617188e+00,-1.295263051986694336e+00,7.639897346496582031e+00,8.037567138671875000e+01,-1.573333740234375000e+02,5.931854248046875000e+01
2.846001887321472168e+01,6.423643112182617188e+00,-1.295263051986694336e+00,7.639897346496582031e+00,8.037567138671875000e+01,-1.573333740234375000e+02,5.931854248046875000e+01
2.847156620025634766e+01,6.423643112182617188e+00,-1.295263051986694336e+00,7.639897346496582031e+00,8.037567138671875000e+01,-1.573333740234375000e+02,5.931854248046875000e+01
2.848322296142578125e+01,6.423643112182617188e+00,-1.295263051986694336e+00,7.639897346496582031e+00,8.037567138671875000e+01,-1.573333740234375000e+02,5.931854248046875000e+01
2.849451613426208496e+01,6.423643112182617188e+00,-1.295263051986694336e+00,7.639897346496582031e+00,8.037567138671875000e+01,-1.573333740234375000e+02,5.931854248046875000e+01
2.850610995292663574e+01,6.423643112182617188e+00,-1.295263051986694336e+00,7.639897346496582031e+00,8.037567138671875000e+01,-1.573333740234375000e+02,5.931854248046875000e+01
2.851750016212463379e+01,6.423643112182617188e+00,-1.295263051986694336e+00,7.639897346496582031e+00,8.037567138671875000e+01,-1.573333740234375000e+02,5.931854248046875000e+01
2.852947688102722168e+01,6.423643112182617188e+00,-1.295263051986694336e+00,7.639897346496582031e+00,8.037567138671875000e+01,-1.573333740234375000e+02,5.931854248046875000e+01
2.854125213623046875e+01,6.423643112182617188e+00,-1.295263051986694336e+00,7.639897346496582031e+00,8.037567138671875000e+01,-1.573333740234375000e+02,5.931854248046875000e+01
2.855246615409851074e+01,6.423643112182617188e+00,-1.295263051986694336e+00,7.639897346496582031e+00,8.037567138671875000e+01,-1.573333740234375000e+02,5.931854248046875000e+01
2.856541562080383301e+01,6.423643112182617188e+00,-1.295263051986694336e+00,7.639897346496582031e+00,8.037567138671875000e+01,-1.573333740234375000e+02,5.931854248046875000e+01
2.857718300819396973e+01,6.423643112182617188e+00,-1.295263051986694336e+00,7.639897346496582031e+00,8.037567138671875000e+01,-1.573333740234375000e+02,5.931854248046875000e+01
2.858859801292419434e+01,6.423643112182617188e+00,-1.295263051986694336e+00,7.639897346496582031e+00,8.037567138671875000e+01,-1.573333740234375000e+02,5.931854248046875000e+01
2.860018682479858398e+01,6.423643112182617188e+00,-1.295263051986694336e+00,7.639897346496582031e+00,8.037567138671875000e+01,-1.573333740234375000e+02,5.931854248046875000e+01
2.861106920242309570e+01,6.423643112182617188e+00,-1.295263051986694336e+00,7.639897346496582031e+00,8.037567138671875000e+01,-1.573333740234375000e+02,5.931854248046875000e+01
2.862205076217651367e+01,6.423643112182617188e+00,-1.295263051986694336e+00,7.639897346496582031e+00,8.037567138671875000e+01,-1.573333740234375000e+02,5.931854248046875000e+01
2.863457202911376953e+01,6.423643112182617188e+00,-1.295263051986694336e+00,7.639897346496582031e+00,8.037567138671875000e+01,-1.573333740234375000e+02,5.931854248046875000e+01
2.864617776870727539e+01,6.423643112182617188e+00,-1.295263051986694336e+00,7.639897346496582031e+00,8.037567138671875000e+01,-1.573333740234375000e+02,5.931854248046875000e+01
2.865768408775329590e+01,6.423643112182617188e+00,-1.295263051986694336e+00,7.639897346496582031e+00,8.037567138671875000e+01,-1.573333740234375000e+02,5.931854248046875000e+01
2.866873455047607422e+01,6.423643112182617188e+00,-1.295263051986694336e+00,7.639897346496582031e+00,8.037567138671875000e+01,-1.573333740234375000e+02,5.931854248046875000e+01
2.867986488342285156e+01,6.423643112182617188e+00,-1.295263051986694336e+00,7.639897346496582031e+00,8.037567138671875000e+01,-1.573333740234375000e+02,5.931854248046875000e+01
2.869099426269531250e+01,6.423643112182617188e+00,-1.295263051986694336e+00,7.639897346496582031e+00,8.037567138671875000e+01,-1.573333740234375000e+02,5.931854248046875000e+01
2.870240354537963867e+01,6.423643112182617188e+00,-1.295263051986694336e+00,7.639897346496582031e+00,8.037567138671875000e+01,-1.573333740234375000e+02,5.931854248046875000e+01
2.871392989158630371e+01,6.423643112182617188e+00,-1.295263051986694336e+00,7.639897346496582031e+00,8.037567138671875000e+01,-1.573333740234375000e+02,5.931854248046875000e+01
2.872533631324768066e+01,6.423643112182617188e+00,-1.295263051986694336e+00,7.639897346496582031e+00,8.037567138671875000e+01,-1.573333740234375000e+02,5.931854248046875000e+01
2.873686146736145020e+01,6.423643112182617188e+00,-1.295263051986694336e+00,7.639897346496582031e+00,8.037567138671875000e+01,-1.573333740234375000e+02,5.931854248046875000e+01
2.874830698966979980e+01,6.423643112182617188e+00,-1.295263051986694336e+00,7.639897346496582031e+00,8.037567138671875000e+01,-1.573333740234375000e+02,5.931854248046875000e+01
2.875949096679687500e+01,6.423643112182617188e+00,-1.295263051986694336e+00,7.639897346496582031e+00,8.037567138671875000e+01,-1.573333740234375000e+02,5.931854248046875000e+01
2.877069568634033203e+01,6.423643112182617188e+00,-1.295263051986694336e+00,7.639897346496582031e+00,8.037567138671875000e+01,-1.573333740234375000e+02,5.931854248046875000e+01
2.878183054924011230e+01,6.423643112182617188e+00,-1.295263051986694336e+00,7.639897346496582031e+00,8.037567138671875000e+01,-1.573333740234375000e+02,5.931854248046875000e+01
2.879270076751708984e+01,6.423643112182617188e+00,-1.295263051986694336e+00,7.639897346496582031e+00,8.037567138671875000e+01,-1.573333740234375000e+02,5.931854248046875000e+01
2.880386805534362793e+01,6.423643112182617188e+00,-1.295263051986694336e+00,7.639897346496582031e+00,8.037567138671875000e+01,-1.573333740234375000e+02,5.931854248046875000e+01
2.881483006477355957e+01,6.423643112182617188e+00,-1.295263051986694336e+00,7.639897346496582031e+00,8.037567138671875000e+01,-1.573333740234375000e+02,5.931854248046875000e+01
2.882617044448852539e+01,6.423643112182617188e+00,-1.295263051986694336e+00,7.639897346496582031e+00,8.037567138671875000e+01,-1.573333740234375000e+02,5.931854248046875000e+01
2.883765697479248047e+01,6.423643112182617188e+00,-1.295263051986694336e+00,7.639897346496582031e+00,8.037567138671875000e+01,-1.573333740234375000e+02,5.931854248046875000e+01
2.884901881217956543e+01,6.423643112182617188e+00,-1.295263051986694336e+00,7.639897346496582031e+00,8.037567138671875000e+01,-1.573333740234375000e+02,5.931854248046875000e+01
2.886040544509887695e+01,6.423643112182617188e+00,-1.295263051986694336e+00,7.639897346496582031e+00,8.037567138671875000e+01,-1.573333740234375000e+02,5.931854248046875000e+01
2.887184691429138184e+01,6.423643112182617188e+00,-1.295263051986694336e+00,7.639897346496582031e+00,8.037567138671875000e+01,-1.573333740234375000e+02,5.931854248046875000e+01
2.888412475585937500e+01,6.423643112182617188e+00,-1.295263051986694336e+00,7.639897346496582031e+00,8.037567138671875000e+01,-1.573333740234375000e+02,5.931854248046875000e+01
2.889528846740722656e+01,6.423643112182617188e+00,-1.295263051986694336e+00,7.639897346496582031e+00,8.037567138671875000e+01,-1.573333740234375000e+02,5.931854248046875000e+01
2.890667390823364258e+01,6.423643112182617188e+00,-1.295263051986694336e+00,7.639897346496582031e+00,8.037567138671875000e+01,-1.573333740234375000e+02,5.931854248046875000e+01
2.891803860664367676e+01,6.423643112182617188e+00,-1.295263051986694336e+00,7.639897346496582031e+00,8.037567138671875000e+01,-1.573333740234375000e+02,5.931854248046875000e+01
2.892924880981445312e+01,6.423643112182617188e+00,-1.295263051986694336e+00,7.639897346496582031e+00,8.037567138671875000e+01,-1.573333740234375000e+02,5.931854248046875000e+01
2.894076561927795410e+01,6.423643112182617188e+00,-1.295263051986694336e+00,7.639897346496582031e+00,8.037567138671875000e+01,-1.573333740234375000e+02,5.931854248046875000e+01
2.895314884185791016e+01,6.423643112182617188e+00,-1.295263051986694336e+00,7.639897346496582031e+00,8.037567138671875000e+01,-1.573333740234375000e+02,5.931854248046875000e+01
2.896537995338439941e+01,6.423643112182617188e+00,-1.295263051986694336e+00,7.639897346496582031e+00,8.037567138671875000e+01,-1.573333740234375000e+02,5.931854248046875000e+01
2.897641229629516602e+01,6.423643112182617188e+00,-1.295263051986694336e+00,7.639897346496582031e+00,8.037567138671875000e+01,-1.573333740234375000e+02,5.931854248046875000e+01
2.898797917366027832e+01,6.423643112182617188e+00,-1.295263051986694336e+00,7.639897346496582031e+00,8.037567138671875000e+01,-1.573333740234375000e+02,5.931854248046875000e+01
2.899897408485412598e+01,6.423643112182617188e+00,-1.295263051986694336e+00,7.639897346496582031e+00,8.037567138671875000e+01,-1.573333740234375000e+02,5.931854248046875000e+01
2.901049137115478516e+01,6.423643112182617188e+00,-1.295263051986694336e+00,7.639897346496582031e+00,8.037567138671875000e+01,-1.573333740234375000e+02,5.931854248046875000e+01
2.902106618881225586e+01,6.423643112182617188e+00,-1.295263051986694336e+00,7.639897346496582031e+00,8.037567138671875000e+01,-1.573333740234375000e+02,5.931854248046875000e+01
2.903213119506835938e+01,6.423643112182617188e+00,-1.295263051986694336e+00,7.639897346496582031e+00,8.037567138671875000e+01,-1.573333740234375000e+02,5.931854248046875000e+01
2.904356288909912109e+01,6.423643112182617188e+00,-1.295263051986694336e+00,7.639897346496582031e+00,8.037567138671875000e+01,-1.573333740234375000e+02,5.931854248046875000e+01
2.905744743347167969e+01,6.423643112182617188e+00,-1.295263051986694336e+00,7.639897346496582031e+00,8.037567138671875000e+01,-1.573333740234375000e+02,5.931854248046875000e+01
2.906892585754394531e+01,6.423643112182617188e+00,-1.295263051986694336e+00,7.639897346496582031e+00,8.037567138671875000e+01,-1.573333740234375000e+02,5.931854248046875000e+01
2.908013677597045898e+01,6.423643112182617188e+00,-1.295263051986694336e+00,7.639897346496582031e+00,8.037567138671875000e+01,-1.573333740234375000e+02,5.931854248046875000e+01
2.909117388725280762e+01,6.423643112182617188e+00,-1.295263051986694336e+00,7.639897346496582031e+00,8.037567138671875000e+01,-1.573333740234375000e+02,5.931854248046875000e+01
2.910239577293395996e+01,6.423643112182617188e+00,-1.295263051986694336e+00,7.639897346496582031e+00,8.037567138671875000e+01,-1.573333740234375000e+02,5.931854248046875000e+01
2.911346435546875000e+01,6.423643112182617188e+00,-1.295263051986694336e+00,7.639897346496582031e+00,8.037567138671875000e+01,-1.573333740234375000e+02,5.931854248046875000e+01
2.912634468078613281e+01,6.423643112182617188e+00,-1.295263051986694336e+00,7.639897346496582031e+00,8.037567138671875000e+01,-1.573333740234375000e+02,5.931854248046875000e+01
2.913788318634033203e+01,6.423643112182617188e+00,-1.295263051986694336e+00,7.639897346496582031e+00,8.037567138671875000e+01,-1.573333740234375000e+02,5.931854248046875000e+01
2.914895534515380859e+01,6.423643112182617188e+00,-1.295263051986694336e+00,7.639897346496582031e+00,8.037567138671875000e+01,-1.573333740234375000e+02,5.931854248046875000e+01
2.916002607345581055e+01,6.423643112182617188e+00,-1.295263051986694336e+00,7.639897346496582031e+00,8.037567138671875000e+01,-1.573333740234375000e+02,5.931854248046875000e+01
2.917135214805603027e+01,6.423643112182617188e+00,-1.295263051986694336e+00,7.639897346496582031e+00,8.037567138671875000e+01,-1.573333740234375000e+02,5.931854248046875000e+01
2.918260884284973145e+01,6.423643112182617188e+00,-1.295263051986694336e+00,7.639897346496582031e+00,8.037567138671875000e+01,-1.573333740234375000e+02,5.931854248046875000e+01
2.919554996490478516e+01,6.423643112182617188e+00,-1.295263051986694336e+00,7.639897346496582031e+00,8.037567138671875000e+01,-1.573333740234375000e+02,5.931854248046875000e+01
2.920645451545715332e+01,6.423643112182617188e+00,-1.295263051986694336e+00,7.639897346496582031e+00,8.037567138671875000e+01,-1.573333740234375000e+02,5.931854248046875000e+01
2.921769690513610840e+01,6.423643112182617188e+00,-1.295263051986694336e+00,7.639897346496582031e+00,8.037567138671875000e+01,-1.573333740234375000e+02,5.931854248046875000e+01
2.922916793823242188e+01,6.423643112182617188e+00,-1.295263051986694336e+00,7.639897346496582031e+00,8.037567138671875000e+01,-1.573333740234375000e+02,5.931854248046875000e+01
2.924058866500854492e+01,6.423643112182617188e+00,-1.295263051986694336e+00,7.639897346496582031e+00,8.037567138671875000e+01,-1.573333740234375000e+02,5.931854248046875000e+01
2.925208449363708496e+01,6.423643112182617188e+00,-1.295263051986694336e+00,7.639897346496582031e+00,8.037567138671875000e+01,-1.573333740234375000e+02,5.931854248046875000e+01
2.926459121704101562e+01,6.423643112182617188e+00,-1.295263051986694336e+00,7.639897346496582031e+00,8.037567138671875000e+01,-1.573333740234375000e+02,5.931854248046875000e+01
2.927623319625854492e+01,6.423643112182617188e+00,-1.295263051986694336e+00,7.639897346496582031e+00,8.037567138671875000e+01,-1.573333740234375000e+02,5.931854248046875000e+01
2.928704881668090820e+01,6.423643112182617188e+00,-1.295263051986694336e+00,7.639897346496582031e+00,8.037567138671875000e+01,-1.573333740234375000e+02,5.931854248046875000e+01
2.929765701293945312e+01,6.423643112182617188e+00,-1.295263051986694336e+00,7.639897346496582031e+00,8.037567138671875000e+01,-1.573333740234375000e+02,5.931854248046875000e+01
2.930848741531372070e+01,6.423643112182617188e+00,-1.295263051986694336e+00,7.639897346496582031e+00,8.037567138671875000e+01,-1.573333740234375000e+02,5.931854248046875000e+01
2.931974387168884277e+01,6.423643112182617188e+00,-1.295263051986694336e+00,7.639897346496582031e+00,8.037567138671875000e+01,-1.573333740234375000e+02,5.931854248046875000e+01
2.933117651939392090e+01,6.423643112182617188e+00,-1.295263051986694336e+00,7.639897346496582031e+00,8.037567138671875000e+01,-1.573333740234375000e+02,5.931854248046875000e+01
2.934271597862243652e+01,6.423643112182617188e+00,-1.295263051986694336e+00,7.639897346496582031e+00,8.037567138671875000e+01,-1.573333740234375000e+02,5.931854248046875000e+01
2.935419178009033203e+01,6.423643112182617188e+00,-1.295263051986694336e+00,7.639897346496582031e+00,8.037567138671875000e+01,-1.573333740234375000e+02,5.931854248046875000e+01
2.936597442626953125e+01,6.423643112182617188e+00,-1.295263051986694336e+00,7.639897346496582031e+00,8.037567138671875000e+01,-1.573333740234375000e+02,5.931854248046875000e+01
2.937734746932983398e+01,6.423643112182617188e+00,-1.295263051986694336e+00,7.639897346496582031e+00,8.037567138671875000e+01,-1.573333740234375000e+02,5.931854248046875000e+01
2.938887500762939453e+01,6.423643112182617188e+00,-1.295263051986694336e+00,7.639897346496582031e+00,8.037567138671875000e+01,-1.573333740234375000e+02,5.931854248046875000e+01
2.939976286888122559e+01,6.423643112182617188e+00,-1.295263051986694336e+00,7.639897346496582031e+00,8.037567138671875000e+01,-1.573333740234375000e+02,5.931854248046875000e+01
2.941124939918518066e+01,6.423643112182617188e+00,-1.295263051986694336e+00,7.639897346496582031e+00,8.037567138671875000e+01,-1.573333740234375000e+02,5.931854248046875000e+01
2.942261171340942383e+01,6.423643112182617188e+00,-1.295263051986694336e+00,7.639897346496582031e+00,8.037567138671875000e+01,-1.573333740234375000e+02,5.931854248046875000e+01
2.943404006958007812e+01,6.423643112182617188e+00,-1.295263051986694336e+00,7.639897346496582031e+00,8.037567138671875000e+01,-1.573333740234375000e+02,5.931854248046875000e+01
2.944554138183593750e+01,6.423643112182617188e+00,-1.295263051986694336e+00,7.639897346496582031e+00,8.037567138671875000e+01,-1.573333740234375000e+02,5.931854248046875000e+01
2.945732426643371582e+01,6.423643112182617188e+00,-1.295263051986694336e+00,7.639897346496582031e+00,8.037567138671875000e+01,-1.573333740234375000e+02,5.931854248046875000e+01
2.947015285491943359e+01,6.423643112182617188e+00,-1.295263051986694336e+00,7.639897346496582031e+00,8.037567138671875000e+01,-1.573333740234375000e+02,5.931854248046875000e+01
2.948163723945617676e+01,6.423643112182617188e+00,-1.295263051986694336e+00,7.639897346496582031e+00,8.037567138671875000e+01,-1.573333740234375000e+02,5.931854248046875000e+01
2.949308633804321289e+01,6.423643112182617188e+00,-1.295263051986694336e+00,7.639897346496582031e+00,8.037567138671875000e+01,-1.573333740234375000e+02,5.931854248046875000e+01
2.950440096855163574e+01,6.423643112182617188e+00,-1.295263051986694336e+00,7.639897346496582031e+00,8.037567138671875000e+01,-1.573333740234375000e+02,5.931854248046875000e+01
2.951512193679809570e+01,6.423643112182617188e+00,-1.295263051986694336e+00,7.639897346496582031e+00,8.037567138671875000e+01,-1.573333740234375000e+02,5.931854248046875000e+01
2.952647185325622559e+01,6.423643112182617188e+00,-1.295263051986694336e+00,7.639897346496582031e+00,8.037567138671875000e+01,-1.573333740234375000e+02,5.931854248046875000e+01
2.953708291053771973e+01,6.423643112182617188e+00,-1.295263051986694336e+00,7.639897346496582031e+00,8.037567138671875000e+01,-1.573333740234375000e+02,5.931854248046875000e+01
2.954833221435546875e+01,6.423643112182617188e+00,-1.295263051986694336e+00,7.639897346496582031e+00,8.037567138671875000e+01,-1.573333740234375000e+02,5.931854248046875000e+01
2.955927157402038574e+01,6.423643112182617188e+00,-1.295263051986694336e+00,7.639897346496582031e+00,8.037567138671875000e+01,-1.573333740234375000e+02,5.931854248046875000e+01
2.957166600227355957e+01,6.423643112182617188e+00,-1.295263051986694336e+00,7.639897346496582031e+00,8.037567138671875000e+01,-1.573333740234375000e+02,5.931854248046875000e+01
2.958546328544616699e+01,6.423643112182617188e+00,-1.295263051986694336e+00,7.639897346496582031e+00,8.037567138671875000e+01,-1.573333740234375000e+02,5.931854248046875000e+01
2.959708547592163086e+01,6.423643112182617188e+00,-1.295263051986694336e+00,7.639897346496582031e+00,8.037567138671875000e+01,-1.573333740234375000e+02,5.931854248046875000e+01
2.960841679573059082e+01,6.423643112182617188e+00,-1.295263051986694336e+00,7.639897346496582031e+00,8.037567138671875000e+01,-1.573333740234375000e+02,5.931854248046875000e+01
2.961943578720092773e+01,6.423643112182617188e+00,-1.295263051986694336e+00,7.639897346496582031e+00,8.037567138671875000e+01,-1.573333740234375000e+02,5.931854248046875000e+01
2.963090276718139648e+01,6.423643112182617188e+00,-1.295263051986694336e+00,7.639897346496582031e+00,8.037567138671875000e+01,-1.573333740234375000e+02,5.931854248046875000e+01
2.964196872711181641e+01,6.423643112182617188e+00,-1.295263051986694336e+00,7.639897346496582031e+00,8.037567138671875000e+01,-1.573333740234375000e+02,5.931854248046875000e+01
2.965450429916381836e+01,6.423643112182617188e+00,-1.295263051986694336e+00,7.639897346496582031e+00,8.037567138671875000e+01,-1.573333740234375000e+02,5.931854248046875000e+01
2.966627788543701172e+01,6.423643112182617188e+00,-1.295263051986694336e+00,7.639897346496582031e+00,8.037567138671875000e+01,-1.573333740234375000e+02,5.931854248046875000e+01
2.967691755294799805e+01,6.423643112182617188e+00,-1.295263051986694336e+00,7.639897346496582031e+00,8.037567138671875000e+01,-1.573333740234375000e+02,5.931854248046875000e+01
2.968760418891906738e+01,6.423643112182617188e+00,-1.295263051986694336e+00,7.639897346496582031e+00,8.037567138671875000e+01,-1.573333740234375000e+02,5.931854248046875000e+01
2.969857788085937500e+01,6.423643112182617188e+00,-1.295263051986694336e+00,7.639897346496582031e+00,8.037567138671875000e+01,-1.573333740234375000e+02,5.931854248046875000e+01
2.970986247062683105e+01,6.423643112182617188e+00,-1.295263051986694336e+00,7.639897346496582031e+00,8.037567138671875000e+01,-1.573333740234375000e+02,5.931854248046875000e+01
2.972358202934265137e+01,6.423643112182617188e+00,-1.295263051986694336e+00,7.639897346496582031e+00,8.037567138671875000e+01,-1.573333740234375000e+02,5.931854248046875000e+01
2.973499083518981934e+01,6.423643112182617188e+00,-1.295263051986694336e+00,7.639897346496582031e+00,8.037567138671875000e+01,-1.573333740234375000e+02,5.931854248046875000e+01
2.974568271636962891e+01,6.423643112182617188e+00,-1.295263051986694336e+00,7.639897346496582031e+00,8.037567138671875000e+01,-1.573333740234375000e+02,5.931854248046875000e+01
2.975734543800354004e+01,6.423643112182617188e+00,-1.295263051986694336e+00,7.639897346496582031e+00,8.037567138671875000e+01,-1.573333740234375000e+02,5.931854248046875000e+01
2.976845073699951172e+01,6.423643112182617188e+00,-1.295263051986694336e+00,7.639897346496582031e+00,8.037567138671875000e+01,-1.573333740234375000e+02,5.931854248046875000e+01
2.978009819984436035e+01,6.423643112182617188e+00,-1.295263051986694336e+00,7.639897346496582031e+00,8.037567138671875000e+01,-1.573333740234375000e+02,5.931854248046875000e+01
2.979085683822631836e+01,6.423643112182617188e+00,-1.295263051986694336e+00,7.639897346496582031e+00,8.037567138671875000e+01,-1.573333740234375000e+02,5.931854248046875000e+01
2.980184888839721680e+01,6.423643112182617188e+00,-1.295263051986694336e+00,7.639897346496582031e+00,8.037567138671875000e+01,-1.573333740234375000e+02,5.931854248046875000e+01
2.981311154365539551e+01,6.423643112182617188e+00,-1.295263051986694336e+00,7.639897346496582031e+00,8.037567138671875000e+01,-1.573333740234375000e+02,5.931854248046875000e+01
2.982431316375732422e+01,6.423643112182617188e+00,-1.295263051986694336e+00,7.639897346496582031e+00,8.037567138671875000e+01,-1.573333740234375000e+02,5.931854248046875000e+01
