# elapsed time, f2_acc_x, f2_acc_y, f2_acc_z, f2_gyro_x, f2_gyro_y, f2_gyro_z
4.233919930458068848e+01,7.627926349639892578e+00,-1.364694982767105103e-01,6.095637321472167969e+00,4.043579101562500000e-01,2.822875976562500000e-01,-1.449584960937500000e-01
4.235447406768798828e+01,7.627926349639892578e+00,-1.795651316642761230e-01,6.155492305755615234e+00,4.501342773437500000e-01,1.296997070312500000e-01,-1.449584960937500000e-01
4.236656308174133301e+01,7.601590156555175781e+00,-1.795651316642761230e-01,6.155492305755615234e+00,3.509521484375000000e-01,-1.449584960937500000e-01,-7.629394531250000000e-03
4.238106012344360352e+01,7.601590156555175781e+00,-1.125274747610092302e-01,6.150703907012940341e+00,3.509521484375000000e-01,-1.449584960937500000e-01,7.629394531250000000e-03
4.239300417900085449e+01,7.601590156555175781e+00,-9.576806426048280196e-02,6.059724330902099609e+00,2.899169921875000000e-01,-1.449584960937500000e-01,7.629394531250000000e-03
4.240836691856384277e+01,7.651868343353270596e+00,-8.858545869588851929e-02,6.052541732788085938e+00,1.373291015625000000e-01,-3.509521484375000000e-01,7.629394531250000000e-03
4.242298269271850586e+01,7.651868343353270596e+00,-9.576806426048280196e-02,6.052541732788085938e+00,1.373291015625000000e-01,-9.155273437500000000e-02,-6.866455078125000000e-02
4.243498849868774414e+01,7.611166954040527344e+00,-1.221042871475219449e-01,6.062118530273437500e+00,1.373291015625000000e-01,-9.155273437500000000e-02,-6.866455078125000000e-02
4.245037937164306641e+01,7.611166954040527344e+00,-1.221042871475219449e-01,6.062118530273437500e+00,1.678466796875000000e-01,-9.155273437500000000e-02,-6.866455078125000000e-02
4.246290874481201172e+01,7.611166954040527344e+00,-1.221042871475219449e-01,6.062118530273437500e+00,1.678466796875000000e-01,-6.103515625000000000e-02,-2.822875976562500000e-01
4.247787714004516602e+01,7.637503147125244141e+00,-1.388636976480484009e-01,6.052541732788085938e+00,1.678466796875000000e-01,-6.103515625000000000e-02,-3.509521484375000000e-01
4.248873281478881836e+01,7.637503147125244141e+00,-2.082955390214920044e-01,6.078877925872802734e+00,1.296997070312500000e-01,-6.103515625000000000e-02,-3.509521484375000000e-01
4.250503945350646973e+01,7.637503147125244141e+00,-1.388636976480484009e-01,6.035782337188721591e+00,2.670288085937500000e-01,1.144409179687500000e-01,-2.136230468750000000e-01
4.251585316658020020e+01,7.647079944610596591e+00,-1.340752989053726196e-01,6.078877925872802734e+00,2.670288085937500000e-01,-1.525878906250000000e-02,-5.340576171875000000e-02
4.253081154823303223e+01,7.647079944610596591e+00,-1.340752989053726196e-01,6.093243122100830078e+00,2.670288085937500000e-01,-1.525878906250000000e-02,-5.340576171875000000e-02
4.254738712310791016e+01,7.647079944610596591e+00,-1.508347094058990479e-01,6.093243122100830078e+00,4.806518554687500000e-01,-1.525878906250000000e-02,-5.340576171875000000e-02
4.255890274047851562e+01,7.678204536437987393e+00,-1.508347094058990479e-01,6.095637321472167969e+00,3.814697265625000000e-01,-4.577636718750000000e-02,-7.629394531250000000e-03
4.257275319099426270e+01,7.623137950897217685e+00,-1.364694982767105103e-01,6.095637321472167969e+00,3.814697265625000000e-01,2.059936523437500000e-01,3.051757812500000000e-02
4.258595538139343262e+01,7.623137950897217685e+00,-9.816227108240127563e-02,6.121973514556884766e+00,3.814697265625000000e-01,2.059936523437500000e-01,3.051757812500000000e-02
4.260004305839538574e+01,7.623137950897217685e+00,-9.816227108240127563e-02,6.143521308898925781e+00,4.501342773437500000e-01,2.059936523437500000e-01,-1.525878906250000000e-02
4.261101698875427246e+01,7.580042362213134766e+00,-1.532289087772369385e-01,6.121973514556884766e+00,4.501342773437500000e-01,7.629394531250000000e-02,-1.525878906250000000e-02
4.262948966026306152e+01,7.625532150268554688e+00,-1.795651316642761230e-01,5.968744754791259766e+00,4.119873046875000000e-01,-1.296997070312500000e-01,5.340576171875000000e-02
4.264178848266601562e+01,7.589619159698486328e+00,-1.795651316642761230e-01,5.968744754791259766e+00,2.517700195312500000e-01,3.051757812500000000e-02,5.340576171875000000e-02
4.265435290336608887e+01,7.625532150268554688e+00,-1.795651316642761230e-01,6.086060523986816406e+00,2.517700195312500000e-01,3.051757812500000000e-02,-2.136230468750000000e-01
4.266835355758666992e+01,7.635108947753906250e+00,-1.819593310356139859e-01,6.169857501983642578e+00,1.907348632812500000e-01,3.051757812500000000e-02,-2.136230468750000000e-01
4.268116974830627441e+01,7.654262542724608487e+00,-1.771709173917770386e-01,6.086060523986816406e+00,3.814697265625000000e-01,-2.670288085937500000e-01,-1.754760742187500000e-01
4.269648671150207520e+01,7.654262542724608487e+00,-1.771709173917770386e-01,6.064512729644775391e+00,3.509521484375000000e-01,-2.670288085937500000e-01,-1.602172851562500000e-01
4.271062755584716797e+01,7.694963932037353516e+00,-1.771709173917770386e-01,6.064512729644775391e+00,3.814697265625000000e-01,-9.918212890625000000e-02,-1.678466796875000000e-01
4.272365140914916992e+01,7.649474143981933594e+00,-1.628057062625885010e-01,6.112396717071532315e+00,4.196166992187500000e-01,6.866455078125000000e-02,-1.678466796875000000e-01
4.273585772514343262e+01,7.649474143981933594e+00,-1.316810846328735629e-01,6.112396717071532315e+00,4.196166992187500000e-01,-9.918212890625000000e-02,-1.678466796875000000e-01
4.275239515304565430e+01,7.649474143981933594e+00,-1.316810846328735629e-01,6.100425720214843750e+00,3.280639648437500000e-01,1.220703125000000000e-01,-3.280639648437500000e-01
4.276340198516845703e+01,7.649474143981933594e+00,-1.316810846328735629e-01,6.100425720214843750e+00,3.280639648437500000e-01,-1.678466796875000000e-01,-3.356933593750000000e-01
4.277696871757507324e+01,7.649474143981933594e+00,-6.943184882402420044e-02,6.100425720214843750e+00,4.425048828125000000e-01,-1.678466796875000000e-01,-3.356933593750000000e-01
4.279463768005371094e+01,7.589619159698486328e+00,-6.943184882402420044e-02,5.954379558563232422e+00,4.425048828125000000e-01,-6.561279296875000000e-01,4.272460937500000000e-01
4.280556464195251465e+01,7.582436561584472656e+00,-1.316810846328735629e-01,5.954379558563232422e+00,4.425048828125000000e-01,-6.561279296875000000e-01,4.272460937500000000e-01
4.281969237327575684e+01,7.582436561584472656e+00,-1.915361285209656039e-01,6.160280704498291016e+00,3.662109375000000000e-01,1.525878906250000000e-02,-1.525878906250000000e-02
4.283354830741882324e+01,7.661445140838622159e+00,-1.316810846328735629e-01,6.217741489410400391e+00,3.662109375000000000e-01,1.525878906250000000e-01,-4.043579101562500000e-01
4.284590077400207520e+01,7.661445140838622159e+00,-8.858545869588851929e-02,6.172251701354980469e+00,3.662109375000000000e-01,1.525878906250000000e-01,-1.525878906250000000e-02
4.285760354995727539e+01,7.644685745239257812e+00,-8.858545869588851929e-02,6.186616897583007812e+00,1.754760742187500000e-01,1.525878906250000000e-01,-1.525878906250000000e-02
4.287299847602844238e+01,7.563282966613769531e+00,-1.364694982767105103e-01,6.172251701354980469e+00,3.509521484375000000e-01,-4.653930664062500000e-01,-1.525878906250000000e-02
4.288421344757080078e+01,7.563282966613769531e+00,-1.987187415361404419e-01,6.160280704498291016e+00,8.392333984375000000e-02,-1.136779785156250000e+00,-1.754760742187500000e-01
4.289959692955017090e+01,7.577648162841797763e+00,-1.987187415361404419e-01,6.110002517700195312e+00,3.509521484375000000e-01,-1.121520996093750000e+00,-2.059936523437500000e-01
4.291282939910888672e+01,7.642291545867919922e+00,-1.508347094058990479e-01,6.110002517700195312e+00,4.959106445312500000e-01,-1.121520996093750000e+00,-3.051757812500000000e-01
4.292740488052368164e+01,7.740454196929932529e+00,-1.508347094058990479e-01,6.112396717071532315e+00,4.959106445312500000e-01,-1.121520996093750000e+00,-3.051757812500000000e-01
4.294586133956909180e+01,7.805097579956054688e+00,-1.675941199064254761e-01,6.112396717071532315e+00,-2.441406250000000000e-01,-1.312255859375000000e+00,1.182556152343750000e+00
4.295695352554321289e+01,7.740454196929932529e+00,-1.675941199064254761e-01,5.928043365478516513e+00,-2.746582031250000000e-01,-1.312255859375000000e+00,1.182556152343750000e+00
4.296912598609924316e+01,7.608772754669188565e+00,-2.274491637945174893e-01,5.928043365478516513e+00,-2.441406250000000000e-01,-6.561279296875000000e-01,1.174926757812500000e+00
4.298144936561584473e+01,7.457938194274902344e+00,-1.221042871475219449e-01,6.124367713928222656e+00,3.890991210937500000e-01,-6.561279296875000000e-01,4.272460937500000000e-01
4.299587559700012207e+01,7.608772754669188565e+00,-2.274491637945174893e-01,6.129156112670897549e+00,3.890991210937500000e-01,-1.098632812500000000e+00,-2.288818359375000000e-02
4.300863814353942871e+01,7.714117527008057529e+00,-1.221042871475219449e-01,6.129156112670897549e+00,2.822875976562500000e-01,-2.044677734375000000e+00,4.272460937500000000e-01
4.302478933334350586e+01,7.714117527008057529e+00,-2.346317619085311890e-01,6.021417140960692471e+00,-1.220703125000000000e-01,-2.044677734375000000e+00,1.075744628906250000e+00
4.303539729118347168e+01,7.575253963470458984e+00,-1.939303278923034668e-01,5.872976779937744141e+00,-1.220703125000000000e-01,-2.044677734375000000e+00,1.075744628906250000e+00
4.305092310905456543e+01,7.575253963470458984e+00,-1.939303278923034668e-01,5.872976779937744141e+00,-2.059936523437500000e-01,-1.228332519531250000e+00,-5.798339843750000000e-01
4.306177067756652832e+01,7.706934928894042969e+00,-1.388636976480484009e-01,6.179434299468994141e+00,-2.059936523437500000e-01,2.517700195312500000e-01,-5.798339843750000000e-01
4.307769727706909180e+01,7.706934928894042969e+00,-7.900865375995635986e-02,6.232106685638427734e+00,-2.975463867187500000e-01,2.517700195312500000e-01,-3.509521484375000000e-01
4.309320902824401855e+01,7.697358131408691406e+00,-1.388636976480484009e-01,6.179434299468994141e+00,-2.975463867187500000e-01,-8.163452148437500000e-01,9.918212890625000000e-02
4.310403656959533691e+01,7.697358131408691406e+00,-6.224924325942992470e-02,6.098031520843505859e+00,-1.754760742187500000e-01,-2.258300781250000000e+00,4.653930664062500000e-01
4.311842560768127441e+01,7.637503147125244141e+00,-2.250549495220184604e-01,6.098031520843505859e+00,-1.754760742187500000e-01,-2.258300781250000000e+00,4.653930664062500000e-01
4.313178133964538574e+01,7.704540729522705078e+00,-4.548983275890350342e-02,6.002263545989990234e+00,-2.517700195312500000e-01,-1.235961914062500000e+00,2.288818359375000000e-01
4.314652395248413086e+01,7.711723327636718750e+00,-2.322375625371932983e-01,6.002263545989990234e+00,-2.517700195312500000e-01,-9.384155273437500000e-01,2.288818359375000000e-01
4.315857958793640137e+01,7.711723327636718750e+00,-3.591302409768105247e-02,6.002263545989990234e+00,-2.517700195312500000e-01,-9.384155273437500000e-01,3.280639648437500000e-01
4.317540144920349121e+01,7.522581577301025391e+00,-1.556231081485748569e-01,6.011840343475342685e+00,-4.272460937500000000e-01,-1.930236816406250000e+00,7.019042968750000000e-01
4.318824815750122070e+01,7.522581577301025391e+00,-4.548983275890350342e-02,6.155492305755615234e+00,-5.264282226562500000e-01,-1.930236816406250000e+00,3.280639648437500000e-01
4.320078206062316895e+01,7.754819393157958984e+00,-1.556231081485748569e-01,6.052541732788085938e+00,-5.264282226562500000e-01,-2.288818359375000000e-02,1.106262207031250000e+00
4.321734356880187988e+01,7.754819393157958984e+00,-5.746084079146385193e-02,6.117185115814208984e+00,-3.814697265625000000e-01,-2.288818359375000000e-02,1.266479492187500000e+00
4.322870206832885742e+01,7.532158374786377841e+00,-1.268926858901977539e-01,6.052541732788085938e+00,3.280639648437500000e-01,-9.765625000000000000e-01,1.266479492187500000e+00
4.324191069602966309e+01,7.532158374786377841e+00,-5.746084079146385193e-02,6.117185115814208984e+00,-3.814697265625000000e-01,-2.021789550781250000e+00,-1.907348632812500000e-01
4.325976800918579102e+01,7.781155586242675781e+00,-1.268926858901977539e-01,6.040570735931396484e+00,2.441406250000000000e-01,-1.464843750000000000e+00,-1.907348632812500000e-01
4.327100014686584473e+01,7.781155586242675781e+00,2.394201699644327164e-03,6.040570735931396484e+00,-3.814697265625000000e-01,-2.021789550781250000e+00,3.280639648437500000e-01
4.328395366668701172e+01,7.781155586242675781e+00,-9.337386488914489746e-02,5.971138954162597656e+00,2.441406250000000000e-01,-3.219604492187500000e+00,1.174926757812500000e+00
4.329866504669189453e+01,7.752425193786621094e+00,-9.337386488914489746e-02,5.971138954162597656e+00,-1.144409179687500000e-01,-3.219604492187500000e+00,3.280639648437500000e-01
4.331088495254516602e+01,7.785943984985352451e+00,-1.484405100345611572e-01,5.942408561706542969e+00,-1.144409179687500000e-01,-3.219604492187500000e+00,1.174926757812500000e+00
4.332314300537109375e+01,7.752425193786621094e+00,-1.484405100345611572e-01,5.916072368621826172e+00,-6.637573242187500000e-01,-1.380920410156250000e+00,1.937866210937500000e+00
4.334086871147155762e+01,7.611166954040527344e+00,-2.130839526653289517e-01,5.916072368621826172e+00,-9.002685546875000000e-01,-1.632690429687500000e+00,1.937866210937500000e+00
4.335150551795959473e+01,7.606378555297852451e+00,-1.364694982767105103e-01,6.102819919586182529e+00,-9.918212890625000000e-01,-1.510620117187500000e+00,-3.585815429687500000e-01
4.336469101905822754e+01,7.606378555297852451e+00,-1.364694982767105103e-01,6.315904140472412109e+00,-9.918212890625000000e-01,-1.510620117187500000e+00,-1.152038574218750000e+00
4.337945079803466797e+01,7.783549785614013672e+00,-1.364694982767105103e-01,6.315904140472412109e+00,-6.256103515625000000e-01,-1.510620117187500000e+00,-1.152038574218750000e+00
4.339279627799987793e+01,7.783549785614013672e+00,5.267243832349777222e-02,6.227318286895752841e+00,-5.035400390625000000e-01,-2.067565917968750000e+00,9.613037109375000000e-01
4.340757775306701660e+01,7.687781333923339844e+00,-1.173158809542655945e-01,6.198587894439697266e+00,-3.967285156250000000e-01,-2.799987792968750000e+00,1.319885253906250000e+00
4.342165780067443848e+01,7.443572998046875000e+00,-4.309562966227531433e-02,5.959167957305907315e+00,6.866455078125000000e-02,-3.463745117187500000e+00,1.632690429687500000e+00
4.343377351760864258e+01,7.443572998046875000e+00,-1.173158809542655945e-01,5.959167957305907315e+00,6.866455078125000000e-02,-3.463745117187500000e+00,1.632690429687500000e+00
4.344577193260192871e+01,7.491456985473632812e+00,-1.292868852615356445e-01,5.995080947875977451e+00,1.525878906250000000e-02,-2.922058105468750000e+00,1.045227050781250000e+00
4.346108341217041016e+01,7.869740962982177734e+00,-1.292868852615356445e-01,6.133944511413574219e+00,-2.059936523437500000e-01,-2.044677734375000000e+00,2.441406250000000000e-01
4.347344660758972168e+01,7.884106159210205078e+00,-2.226607501506805142e-01,6.133944511413574219e+00,-6.179809570312500000e-01,-1.380920410156250000e+00,2.441406250000000000e-01
4.348838305473327637e+01,7.884106159210205078e+00,-2.489969730377196988e-01,6.028599739074707031e+00,-7.629394531250000000e-01,-1.380920410156250000e+00,2.166748046875000000e+00
4.350254559516906738e+01,7.766790390014647549e+00,-2.609679698944091797e-01,6.016628742218017578e+00,-7.629394531250000000e-01,-1.380920410156250000e+00,2.166748046875000000e+00
4.351538419723510742e+01,7.766790390014647549e+00,-3.567360341548920233e-01,5.753266811370849609e+00,-1.159667968750000000e+00,5.111694335937500000e-01,1.449584960937500000e-01
4.353082871437072754e+01,7.965508937835692471e+00,-5.793967843055725098e-01,5.355829238891601562e+00,-2.311706542968750000e+00,5.111694335937500000e-01,1.449584960937500000e-01
4.354170966148376465e+01,7.965508937835692471e+00,-5.793967843055725098e-01,5.355829238891601562e+00,-2.311706542968750000e+00,-2.136230468750000000e-01,-1.159667968750000000e+00
4.355716562271118164e+01,7.716511726379393643e+00,-3.974374830722808838e-01,5.655104160308837891e+00,-6.561279296875000000e-01,-1.686096191406250000e+00,-1.159667968750000000e+00
4.357248401641845703e+01,7.486668586730957031e+00,-1.292868852615356445e-01,6.009446144104003906e+00,6.866455078125000000e-01,-1.686096191406250000e+00,-1.159667968750000000e+00
4.358413290977478027e+01,7.716511726379393643e+00,-1.292868852615356445e-01,6.102819919586182529e+00,6.866455078125000000e-01,-4.257202148437500000e+00,1.564025878906250000e+00
4.359932112693786621e+01,7.486668586730957031e+00,-1.292868852615356445e-01,6.009446144104003906e+00,-2.517700195312500000e-01,-4.257202148437500000e+00,1.564025878906250000e+00
4.361155891418457031e+01,7.472303390502929688e+00,-2.394201606512069702e-02,6.102819919586182529e+00,-2.517700195312500000e-01,-2.853393554687500000e+00,1.564025878906250000e+00
4.362596249580383301e+01,7.472303390502929688e+00,-2.394201606512069702e-02,6.004657745361327237e+00,-2.517700195312500000e-01,-2.853393554687500000e+00,1.457214355468750000e+00
4.363732051849365234e+01,7.841010570526122159e+00,-2.657563984394072931e-01,6.172251701354980469e+00,-7.476806640625000000e-01,6.866455078125000000e-01,1.457214355468750000e+00
4.365346360206604004e+01,7.841010570526122159e+00,-2.657563984394072931e-01,5.944802761077880859e+00,-7.476806640625000000e-01,-3.799438476562500000e+00,1.457214355468750000e+00
4.366786456108093262e+01,7.678204536437987393e+00,-2.657563984394072931e-01,5.944802761077880859e+00,-7.476806640625000000e-01,-4.928588867187500000e+00,4.173278808593750000e+00
4.368110346794128418e+01,7.457938194274902344e+00,-3.663128614425659180e-01,5.875370979309082031e+00,-4.043579101562500000e-01,-4.928588867187500000e+00,4.173278808593750000e+00
4.369585084915161133e+01,7.457938194274902344e+00,-3.663128614425659180e-01,5.875370979309082031e+00,7.019042968750000000e-01,-2.273559570312500000e+00,-2.212524414062500000e-01
4.370729732513427734e+01,7.819462776184082031e+00,0.000000000000000000e+00,6.007051944732666016e+00,7.019042968750000000e-01,-2.273559570312500000e+00,-2.212524414062500000e-01
4.372277235984802246e+01,7.841010570526122159e+00,2.394201699644327164e-03,6.294356346130371094e+00,-1.014709472656250000e+00,-6.362915039062500000e+00,1.632690429687500000e+00
4.373724651336669922e+01,8.032546997070312500e+00,2.394201699644327164e-03,6.294356346130371094e+00,-1.106262207031250000e+00,-6.362915039062500000e+00,1.632690429687500000e+00
4.374914741516113281e+01,8.034940719604492188e+00,0.000000000000000000e+00,6.086060523986816406e+00,-1.106262207031250000e+00,-9.536743164062500000e-01,1.487731933593750000e+00
4.376467132568359375e+01,8.037335395812986505e+00,-5.386953949928283691e-01,6.078877925872802734e+00,-2.746582031250000000e-01,-9.536743164062500000e-01,1.487731933593750000e+00
4.377680468559265137e+01,8.037335395812986505e+00,-3.375824391841888428e-01,6.050147533416747159e+00,-2.746582031250000000e-01,-6.866455078125000000e-01,1.312255859375000000e+00
4.379144454002380371e+01,7.149085998535156250e+00,-6.392518281936645508e-01,5.626373767852783203e+00,-2.746582031250000000e-01,-1.632690429687500000e+00,1.770019531250000000e+00
4.380402016639709473e+01,7.149085998535156250e+00,-3.375824391841888428e-01,5.626373767852783203e+00,-6.866455078125000000e-01,-1.632690429687500000e+00,1.502990722656250000e+00
4.381748557090759277e+01,7.618349552154541016e+00,-1.053448766469955444e-01,5.846640586853027344e+00,-6.866455078125000000e-01,-2.029418945312500000e+00,1.502990722656250000e+00
4.382979297637939453e+01,7.876923561096191406e+00,-1.053448766469955444e-01,6.284779548645020419e+00,-2.449035644531250000e+00,-2.029418945312500000e+00,1.441955566406250000e+00
4.384754729270935059e+01,7.979874134063721591e+00,-1.364694982767105103e-01,6.284779548645020419e+00,-2.449035644531250000e+00,-1.853942871093750000e+00,1.441955566406250000e+00
4.386092686653137207e+01,7.979874134063721591e+00,-6.751648783683776855e-01,5.734112739562987393e+00,-7.629394531250000000e-03,-1.853942871093750000e+00,1.892089843750000000e+00
4.387135195732116699e+01,7.965508937835692471e+00,-6.751648783683776855e-01,5.734112739562987393e+00,-7.629394531250000000e-03,-4.020690917968750000e+00,1.892089843750000000e+00
4.388924980163574219e+01,7.965508937835692471e+00,-6.368576288223266602e-01,5.882553577423096591e+00,-9.231567382812500000e-01,-4.020690917968750000e+00,1.716613769531250000e+00
4.389922952651977539e+01,7.608772754669188565e+00,-3.782838582992553711e-01,5.882553577423096591e+00,-1.274108886718750000e+00,-2.090454101562500000e+00,1.716613769531250000e+00
4.391448926925659180e+01,7.608772754669188565e+00,-4.812345206737517755e-01,5.825092792510986328e+00,-1.274108886718750000e+00,-2.044677734375000000e+00,2.388000488281250000e+00
4.392891001701354980e+01,7.536946773529052734e+00,-3.782838582992553711e-01,5.714959144592285156e+00,-6.942749023437500000e-01,-2.044677734375000000e+00,2.388000488281250000e+00
4.394101858139038086e+01,7.536946773529052734e+00,-4.764461219310761053e-01,5.714959144592285156e+00,4.577636718750000000e-01,-4.035949707031250000e+00,1.770019531250000000e+00
4.395341563224792480e+01,8.343792915344236505e+00,-3.926490843296051025e-01,5.980715751647949219e+00,4.577636718750000000e-01,-4.035949707031250000e+00,1.770019531250000000e+00
4.397046113014221191e+01,8.343792915344236505e+00,-3.926490843296051025e-01,5.980715751647949219e+00,-2.365112304687500000e-01,-3.799438476562500000e+00,2.479553222656250000e+00
4.398376870155334473e+01,7.479485988616942471e+00,-3.351882398128508966e-01,5.717353343963622159e+00,-4.425048828125000000e-01,-2.006530761718750000e+00,2.479553222656250000e+00
4.399491357803344727e+01,7.479485988616942471e+00,-2.873041927814484198e-01,5.717353343963622159e+00,-1.556396484375000000e+00,-1.823425292968750000e+00,-4.272460937500000000e-01
4.401268815994262695e+01,7.544129371643066406e+00,-3.351882398128508966e-01,5.707776546478272373e+00,-1.182556152343750000e+00,-1.823425292968750000e+00,-4.272460937500000000e-01
4.402340698242187500e+01,7.596801757812500000e+00,-2.537853717803955078e-01,5.700593948364257812e+00,-1.182556152343750000e+00,-2.685546875000000000e+00,3.280639648437500000e-01
4.403766798973083496e+01,7.596801757812500000e+00,-2.035071402788162509e-01,5.700593948364257812e+00,-5.416870117187500000e-01,-2.685546875000000000e+00,3.280639648437500000e-01
4.405170822143554688e+01,8.374917030334472656e+00,-2.035071402788162509e-01,6.057330131530762607e+00,-5.416870117187500000e-01,-1.556396484375000000e+00,3.280639648437500000e-01
4.406395077705383301e+01,8.374917030334472656e+00,-4.477156996726989746e-01,6.057330131530762607e+00,-6.408691406250000000e-01,-1.556396484375000000e+00,5.210876464843750000e+00
4.407597851753234863e+01,7.953537940979003906e+00,-4.477156996726989746e-01,5.870582580566406250e+00,-7.324218750000000000e-01,-1.556396484375000000e+00,5.210876464843750000e+00
4.409127831459045410e+01,7.953537940979003906e+00,-4.477156996726989746e-01,5.815515995025634766e+00,-6.408691406250000000e-01,-2.212524414062500000e-01,2.799987792968750000e+00
4.410531115531921387e+01,7.953537940979003906e+00,-2.849099934101104736e-01,5.870582580566406250e+00,-6.942749023437500000e-01,-2.212524414062500000e-01,4.577636718750000000e-01
4.411838340759277344e+01,8.293514251708982599e+00,-2.849099934101104736e-01,5.978321552276611328e+00,-6.942749023437500000e-01,-4.348754882812500000e-01,4.577636718750000000e-01
4.413356351852416992e+01,8.293514251708982599e+00,-2.849099934101104736e-01,5.978321552276611328e+00,-6.942749023437500000e-01,-1.739501953125000000e+00,4.577636718750000000e-01
4.414458370208740234e+01,8.293514251708982599e+00,-1.316810846328735629e-01,5.834669589996337891e+00,-5.645751953125000000e-01,-2.967834472656250000e+00,3.555297851562500000e+00
4.415987610816955566e+01,7.484274387359619141e+00,-5.339069962501525879e-01,5.834669589996337891e+00,-5.645751953125000000e-01,-3.463745117187500000e+00,3.555297851562500000e+00
4.417180275917053223e+01,7.484274387359619141e+00,-5.746083855628967285e-01,5.834669589996337891e+00,-5.035400390625000000e-01,-2.967834472656250000e+00,2.593994140625000000e+00
4.418712663650512695e+01,7.551311969757080078e+00,-5.746083855628967285e-01,5.849034786224365234e+00,-4.577636718750000000e-02,-3.463745117187500000e+00,2.243041992187500000e+00
4.419930076599121094e+01,7.975085735321044922e+00,-5.602431893348693848e-01,5.849034786224365234e+00,3.814697265625000000e-02,-1.121520996093750000e+00,-8.392333984375000000e-02
4.421378111839294434e+01,8.358158111572267401e+00,-4.405331015586853027e-01,5.849034786224365234e+00,3.814697265625000000e-02,-2.746582031250000000e+00,-8.392333984375000000e-02
4.422938919067382812e+01,8.358158111572267401e+00,-4.357447028160095215e-01,5.889736175537108487e+00,-7.324218750000000000e-01,-2.037048339843750000e+00,3.250122070312500000e+00
4.424132132530212402e+01,7.757213592529297763e+00,-4.357447028160095215e-01,5.681440353393554688e+00,-1.075744628906250000e+00,-2.037048339843750000e+00,3.326416015625000000e+00
4.425569844245910645e+01,7.757213592529297763e+00,-4.668693244457244873e-01,5.681440353393554688e+00,-1.380920410156250000e+00,-8.926391601562500000e-01,3.326416015625000000e+00
4.426765775680541992e+01,8.049305915832519531e+00,-8.571242094039916992e-01,5.214570999145507812e+00,-1.075744628906250000e+00,-8.926391601562500000e-01,3.326416015625000000e+00
4.428324198722839355e+01,8.049305915832519531e+00,-7.062894701957702637e-01,5.214570999145507812e+00,-1.075744628906250000e+00,4.516601562500000000e+00,1.350402832031250000e+00
4.429525256156921387e+01,8.671798706054687500e+00,-7.062894701957702637e-01,6.014234542846679688e+00,-1.068115234375000000e-01,1.129150390625000000e+00,-1.449584960937500000e+00
4.431090092658996582e+01,8.377311706542968750e+00,-4.165910780429840088e-01,6.203376293182372159e+00,-1.068115234375000000e-01,1.129150390625000000e+00,-1.449584960937500000e+00
4.432556533813476562e+01,8.377311706542968750e+00,-4.165910780429840088e-01,6.203376293182372159e+00,-5.874633789062500000e-01,-3.318786621093750000e+00,7.110595703125000000e+00
4.433733749389648438e+01,7.120355606079102451e+00,-5.482721924781799316e-01,5.755661010742188388e+00,-5.874633789062500000e-01,-3.318786621093750000e+00,7.110595703125000000e+00
4.435301876068115234e+01,7.074865818023682529e+00,-8.762778043746948242e-01,5.556941986083983487e+00,7.629394531250000000e-03,-1.426696777343750000e+00,2.372741699218750000e+00
4.436423683166503906e+01,7.074865818023682529e+00,-8.762778043746948242e-01,5.556941986083983487e+00,1.754760742187500000e-01,-1.426696777343750000e+00,1.777648925781250000e+00
4.437938380241394043e+01,7.448361396789550781e+00,-5.913677811622620739e-01,5.722141742706298828e+00,1.754760742187500000e-01,-1.426696777343750000e+00,-1.770019531250000000e+00
4.439185905456542969e+01,8.554482460021972656e+00,-5.147533416748046875e-01,5.973533153533936435e+00,-6.866455078125000000e-02,-3.044128417968750000e+00,-1.770019531250000000e+00
4.440712404251098633e+01,8.554482460021972656e+00,-5.889735817909240723e-01,5.973533153533936435e+00,-1.937866210937500000e+00,-2.296447753906250000e+00,3.837585449218750000e+00
4.441858339309692383e+01,8.044517517089843750e+00,-5.889735817909240723e-01,5.937620162963867188e+00,-1.937866210937500000e+00,-2.395629882812500000e+00,4.302978515625000000e+00
4.443427300453186035e+01,7.534552574157714844e+00,-5.889735817909240723e-01,5.427655220031738281e+00,6.866455078125000000e-01,-2.296447753906250000e+00,4.302978515625000000e+00
4.444506740570068359e+01,7.153874397277832031e+00,-6.943184733390808105e-01,5.427655220031738281e+00,9.918212890625000000e-01,-1.350402832031250000e+00,2.395629882812500000e+00
4.446040606498718262e+01,7.153874397277832031e+00,-5.626373887062072754e-01,5.643133163452147549e+00,9.918212890625000000e-01,-1.350402832031250000e+00,-3.028869628906250000e+00
4.447772145271301270e+01,7.917624950408934659e+00,-4.668693244457244873e-01,5.650315761566162109e+00,2.746582031250000000e-01,-2.525329589843750000e+00,-3.028869628906250000e+00
4.448744177818298340e+01,8.518569946289062500e+00,-4.668693244457244873e-01,6.064512729644775391e+00,2.136230468750000000e-01,-2.525329589843750000e+00,1.289367675781250000e+00
4.450225782394409180e+01,8.518569946289062500e+00,-5.482721924781799316e-01,6.064512729644775391e+00,-1.167297363281250000e+00,-8.621215820312500000e-01,1.312255859375000000e+00
4.451676154136657715e+01,8.358158111572267401e+00,-6.847416758537292480e-01,5.954379558563232422e+00,-1.167297363281250000e+00,-8.621215820312500000e-01,4.463195800781250000e+00
4.452871489524841309e+01,7.793126583099365234e+00,-1.024718284606933594e+00,5.099649429321289062e+00,1.487731933593750000e+00,-8.621215820312500000e-01,4.463195800781250000e+00
4.454143047332763672e+01,7.443572998046875000e+00,-1.024718284606933594e+00,5.099649429321289062e+00,1.487731933593750000e+00,-2.990722656250000000e+00,6.942749023437500000e+00
4.455839014053344727e+01,7.374141216278076172e+00,-6.799532771110534668e-01,5.307945251464843750e+00,-5.035400390625000000e-01,-2.990722656250000000e+00,2.876281738281250000e+00
4.457143163681030273e+01,7.374141216278076172e+00,-6.799532771110534668e-01,5.667075157165527344e+00,-5.035400390625000000e-01,-2.990722656250000000e+00,-1.350402832031250000e+00
4.458297657966613770e+01,7.596801757812500000e+00,-6.536170244216918945e-01,5.667075157165527344e+00,-3.128051757812500000e-01,-2.563476562500000000e+00,-1.350402832031250000e+00
4.460050106048583984e+01,8.386888504028320312e+00,-7.972691655158996582e-01,5.861005783081054688e+00,-3.128051757812500000e-01,-1.007080078125000000e+00,-6.866455078125000000e-01
4.461093497276306152e+01,8.386888504028320312e+00,-3.878606557846068781e-01,6.011840343475342685e+00,-4.043579101562500000e-01,-2.563476562500000000e+00,2.754211425781250000e+00
4.462508654594421387e+01,7.843404769897460938e+00,-8.331821560859680176e-01,5.861005783081054688e+00,-4.043579101562500000e-01,-1.174926757812500000e+00,3.120422363281250000e+00
4.463983941078186035e+01,7.807491779327392578e+00,-6.129156351089477539e-01,5.767632007598877841e+00,-6.179809570312500000e-01,-1.174926757812500000e+00,2.754211425781250000e+00
4.465180373191833496e+01,7.807491779327392578e+00,-7.158662676811218262e-01,5.619191169738769531e+00,1.220703125000000000e-01,-1.174926757812500000e+00,1.060485839843750000e+00
4.466690993309020996e+01,7.989450931549072266e+00,-6.177040338516235352e-01,5.767632007598877841e+00,2.517700195312500000e-01,7.476806640625000000e-01,-5.111694335937500000e-01
4.468137121200561523e+01,8.133103370666503906e+00,-7.158662676811218262e-01,5.786785602569580078e+00,4.348754882812500000e-01,7.476806640625000000e-01,1.144409179687500000e-01
4.469463205337524414e+01,8.133103370666503906e+00,-6.177040338516235352e-01,5.786785602569580078e+00,4.348754882812500000e-01,7.476806640625000000e-01,-1.068115234375000000e-01
4.470618820190429688e+01,8.133103370666503906e+00,-8.595184087753295898e-01,5.489904403686523438e+00,-2.670288085937500000e-01,6.103515625000000000e-01,1.144409179687500000e-01
4.472091531753540039e+01,7.996633529663085938e+00,-6.320692300796508789e-01,5.473145008087158203e+00,-2.670288085937500000e-01,6.103515625000000000e-01,3.601074218750000000e+00
4.473243546485900879e+01,8.135497093200683594e+00,-8.595184087753295898e-01,5.473145008087158203e+00,-1.724243164062500000e+00,-1.029968261718750000e+00,4.692077636718750000e+00
4.474767851829528809e+01,7.556100368499755859e+00,-1.017535686492920144e+00,5.473145008087158203e+00,3.204345703125000000e-01,-1.029968261718750000e+00,3.601074218750000000e+00
4.476051664352416992e+01,7.989450931549072266e+00,-1.046266078948974609e+00,5.580883979797363281e+00,3.204345703125000000e-01,-1.029968261718750000e+00,1.533508300781250000e+00
4.477564334869384766e+01,7.989450931549072266e+00,-1.046266078948974609e+00,5.676651954650878906e+00,3.204345703125000000e-01,-7.400512695312500000e-01,-2.693176269531250000e+00
4.478751802444458008e+01,8.396465301513673651e+00,-2.777273952960968018e-01,5.676651954650878906e+00,-4.501342773437500000e-01,-7.400512695312500000e-01,-2.693176269531250000e+00
4.480169034004211426e+01,8.396465301513673651e+00,-2.777273952960968018e-01,5.734112739562987393e+00,-5.493164062500000000e-01,-8.697509765625000000e-01,4.844665527343750000e+00
4.481725716590881348e+01,8.226476669311521661e+00,-5.482721924781799316e-01,5.602431774139403409e+00,-5.493164062500000000e-01,-8.697509765625000000e-01,4.844665527343750000e+00
4.482913303375244141e+01,8.149862289428710938e+00,-8.882488012313842773e-01,5.602431774139403409e+00,2.212524414062500000e-01,-1.609802246093750000e+00,5.203247070312500000e+00
4.484489750862121582e+01,8.149862289428710938e+00,-6.416460275650024414e-01,5.602431774139403409e+00,2.212524414062500000e-01,7.629394531250000000e-02,1.251220703125000000e+00
4.485586071014404297e+01,8.236053466796875000e+00,-6.416460275650024414e-01,5.303156852722167969e+00,3.204345703125000000e-01,1.602172851562500000e+00,-7.171630859375000000e-01
4.487091732025146484e+01,8.401253700256347656e+00,-5.985504388809204102e-01,6.279991149902343750e+00,-9.536743164062500000e-01,1.602172851562500000e+00,-7.171630859375000000e-01
4.488346719741821289e+01,8.518569946289062500e+00,-5.434837937355041504e-01,5.729324340820312500e+00,-1.235961914062500000e+00,1.907348632812500000e-01,2.052307128906250000e+00
4.489796876907348633e+01,8.518569946289062500e+00,-5.434837937355041504e-01,5.729324340820312500e+00,-1.235961914062500000e+00,-6.942749023437500000e-01,4.753112792968750000e+00
4.491362428665161133e+01,7.393294811248778409e+00,-4.572925269603729248e-01,5.604825973510742188e+00,-1.235961914062500000e+00,1.907348632812500000e-01,4.753112792968750000e+00
4.492598962783813477e+01,7.393294811248778409e+00,-7.302315235137940563e-01,5.604825973510742188e+00,6.179809570312500000e-01,-1.037597656250000000e+00,6.484985351562500000e-01
4.494054365158081055e+01,7.888894557952880859e+00,-4.572925269603729248e-01,5.923254966735839844e+00,-3.814697265625000000e-01,-1.037597656250000000e+00,-2.868652343750000000e+00
4.495248484611511230e+01,8.520963668823242188e+00,-4.022258818149567206e-01,5.923254966735839844e+00,-1.144409179687500000e-01,-1.037597656250000000e+00,-2.593994140625000000e-01
4.496671104431152344e+01,8.238448143005371094e+00,-4.022258818149567206e-01,5.681440353393554688e+00,-1.144409179687500000e-01,-1.548767089843750000e+00,-2.593994140625000000e-01
4.497988772392272949e+01,8.238448143005371094e+00,-5.602431893348693848e-01,5.540182590484619141e+00,-1.144409179687500000e-01,5.035400390625000000e-01,1.632690429687500000e+00
4.499421310424804688e+01,7.704540729522705078e+00,-8.619126081466674805e-01,5.681440353393554688e+00,-5.340576171875000000e-02,-7.553100585937500000e-01,5.317687988281250000e+00
4.500609469413757324e+01,7.704540729522705078e+00,-8.619126081466674805e-01,5.801150798797607422e+00,-1.571655273437500000e+00,5.035400390625000000e-01,1.632690429687500000e+00
4.502207159996032715e+01,7.857769966125487393e+00,-7.733271121978759766e-01,5.827486991882324219e+00,1.014709472656250000e+00,-7.553100585937500000e-01,1.380920410156250000e+00
4.503305792808532715e+01,8.121131896972656250e+00,-6.775590777397155762e-01,6.241683959960937500e+00,-1.571655273437500000e+00,3.753662109375000000e+00,-7.476806640625000000e-01
4.504879832267761230e+01,8.121131896972656250e+00,-6.536170244216918945e-01,5.827486991882324219e+00,8.392333984375000000e-02,-3.364562988281250000e+00,1.380920410156250000e+00
4.506081891059875488e+01,8.027758598327638495e+00,-6.536170244216918945e-01,5.734112739562987393e+00,-1.823425292968750000e+00,-5.722045898437500000e-01,3.852844238281250000e+00
4.507452607154846191e+01,8.027758598327638495e+00,-1.161187767982482910e+00,5.561730384826660156e+00,8.392333984375000000e-02,-5.722045898437500000e-01,4.226684570312500000e+00
4.508995890617370605e+01,7.750030994415282315e+00,-1.161187767982482910e+00,5.561730384826660156e+00,-1.319885253906250000e+00,3.944396972656250000e+00,3.852844238281250000e+00
4.510445070266723633e+01,8.461108207702638495e+00,-6.416460275650024414e-01,5.434837818145751953e+00,-4.119873046875000000e-01,3.944396972656250000e+00,-3.738403320312500000e-01
4.511772823333740234e+01,7.750030994415282315e+00,-6.416460275650024414e-01,5.434837818145751953e+00,-1.174926757812500000e+00,-1.678466796875000000e-01,-3.738403320312500000e-01
4.512885093688964844e+01,7.685387134552002841e+00,-7.637503147125244141e-01,5.420472621917724609e+00,-4.119873046875000000e-01,-1.678466796875000000e-01,3.883361816406250000e+00
4.514687657356262207e+01,7.558494567871093750e+00,-7.637503147125244141e-01,5.420472621917724609e+00,0.000000000000000000e+00,-3.280639648437500000e-01,3.883361816406250000e+00
4.515826916694641113e+01,7.558494567871093750e+00,-7.733271121978759766e-01,5.556941986083983487e+00,0.000000000000000000e+00,-2.517700195312500000e-01,8.316040039062500000e-01
4.517052459716796875e+01,7.869740962982177734e+00,-7.733271121978759766e-01,5.573701381683349609e+00,-5.340576171875000000e-01,-2.517700195312500000e-01,8.316040039062500000e-01
4.518539452552795410e+01,7.869740962982177734e+00,-7.733271121978759766e-01,5.573701381683349609e+00,-5.340576171875000000e-01,-9.918212890625000000e-02,8.316040039062500000e-01
4.519838023185729980e+01,7.869740962982177734e+00,-6.512228250503540039e-01,5.741295814514160156e+00,2.212524414062500000e-01,8.544921875000000000e-01,2.975463867187500000e-01
4.521366500854492188e+01,8.125920295715332031e+00,-6.512228250503540039e-01,5.741295814514160156e+00,2.212524414062500000e-01,8.544921875000000000e-01,2.975463867187500000e-01
4.522742486000061035e+01,8.125920295715332031e+00,-6.272808313369750977e-01,5.592854976654052734e+00,-4.425048828125000000e-01,-7.629394531250000000e-02,2.304077148437500000e+00
4.524047827720642090e+01,7.929595947265625000e+00,-8.451532125473022461e-01,5.580883979797363281e+00,-4.425048828125000000e-01,-2.029418945312500000e+00,2.586364746093750000e+00
4.525206661224365234e+01,7.572859764099121094e+00,-8.786720037460327148e-01,5.580883979797363281e+00,7.858276367187500000e-01,-7.629394531250000000e-02,2.586364746093750000e+00
4.526960468292236328e+01,7.572859764099121094e+00,-1.096544384956360085e+00,5.580883979797363281e+00,7.858276367187500000e-01,1.663208007812500000e+00,8.468627929687500000e-01
4.528021311759948730e+01,7.742848396301268643e+00,-1.096544384956360085e+00,5.537788391113281250e+00,3.280639648437500000e-01,1.663208007812500000e+00,8.468627929687500000e-01
4.529503297805786133e+01,7.972691535949707031e+00,-9.983820915222167969e-01,5.530605792999268466e+00,-1.831054687500000000e-01,3.341674804687500000e+00,4.806518554687500000e-01
4.531184625625610352e+01,7.972691535949707031e+00,-9.983820915222167969e-01,5.456385612487792969e+00,3.280639648437500000e-01,-2.784729003906250000e+00,3.784179687500000000e+00
4.532300901412963867e+01,7.972691535949707031e+00,-7.493851184844970703e-01,5.530605792999268466e+00,-9.994506835937500000e-01,6.561279296875000000e+00,-1.403808593750000000e+00
4.533570647239685059e+01,7.982268333435058594e+00,-3.830722570419312079e-01,5.779603004455566406e+00,4.730224609375000000e-01,-4.692077636718750000e+00,-1.861572265625000000e+00
4.534844470024108887e+01,7.661445140838622159e+00,-3.830722570419312079e-01,5.779603004455566406e+00,-9.994506835937500000e-01,-4.257202148437500000e+00,-1.861572265625000000e+00
4.536378121376037598e+01,8.449137687683105469e+00,-3.687070608139038086e-01,5.394136428833007812e+00,6.103515625000000000e-01,-4.692077636718750000e+00,1.617431640625000000e+00
4.537834358215332031e+01,9.026140213012695312e+00,-8.930371999740600586e-01,5.394136428833007812e+00,8.544921875000000000e-01,-7.034301757812500000e+00,1.617431640625000000e+00
4.538997602462768555e+01,9.026140213012695312e+00,-5.841851830482482910e-01,6.042964935302733487e+00,8.544921875000000000e-01,-7.034301757812500000e+00,1.617431640625000000e+00
4.540505528450012207e+01,7.769184589385986328e+00,-9.935936927795409046e-01,6.042964935302733487e+00,-5.950927734375000000e-01,-4.272460937500000000e+00,4.531860351562500000e+00
4.541696739196777344e+01,7.563282966613769531e+00,-1.017535686492920144e+00,5.061342239379882812e+00,-5.950927734375000000e-01,-2.182006835937500000e+00,1.541137695312500000e+00
4.543257713317871094e+01,7.563282966613769531e+00,-1.017535686492920144e+00,5.061342239379882812e+00,7.629394531250000000e-02,-2.182006835937500000e+00,1.541137695312500000e+00
4.544473266601562500e+01,7.766790390014647549e+00,-6.895300745964050293e-01,5.712564945220947266e+00,7.629394531250000000e-02,-2.182006835937500000e+00,7.934570312500000000e-01
4.545883107185363770e+01,7.766790390014647549e+00,-6.799532771110534668e-01,5.712564945220947266e+00,-4.119873046875000000e-01,-4.806518554687500000e-01,7.934570312500000000e-01
4.547520470619201660e+01,8.552088737487792969e+00,-6.895300745964050293e-01,5.712564945220947266e+00,-4.119873046875000000e-01,-5.088806152343750000e+00,1.640319824218750000e+00
4.548697757720947266e+01,7.513004779815673828e+00,-7.086836695671081543e-01,5.269638061523437500e+00,9.384155273437500000e-01,-5.088806152343750000e+00,1.731872558593750000e+00
4.550160455703735352e+01,7.814674377441406250e+00,-7.086836695671081543e-01,5.269638061523437500e+00,9.384155273437500000e-01,-5.088806152343750000e+00,1.731872558593750000e+00
4.551341104507446289e+01,7.513004779815673828e+00,-7.469909191131591797e-01,5.243301868438721591e+00,1.655578613281250000e+00,-3.082275390625000000e+00,1.731872558593750000e+00
4.552984762191772461e+01,7.814674377441406250e+00,-5.051765441894531250e-01,5.243301868438721591e+00,-1.396179199218750000e+00,1.144409179687500000e+00,-3.036499023437500000e+00
4.554059219360351562e+01,7.606378555297852451e+00,-9.481038451194764294e-01,5.250484466552733487e+00,1.831054687500000000e+00,-3.082275390625000000e+00,2.639770507812500000e+00
4.555467867851257324e+01,7.814674377441406250e+00,-9.481038451194764294e-01,5.770026206970214844e+00,-1.396179199218750000e+00,2.700805664062500000e+00,-5.340576171875000000e-02
4.557118749618530273e+01,7.852981567382812500e+00,-9.481038451194764294e-01,5.791574001312255859e+00,3.433227539062500000e-01,-1.205444335937500000e+00,-5.340576171875000000e-02
4.558157515525817871e+01,7.896077156066894531e+00,-9.672574996948242188e-01,5.791574001312255859e+00,-1.823425292968750000e+00,4.730224609375000000e-01,-5.340576171875000000e-02
4.559789562225341797e+01,7.852981567382812500e+00,-7.350199222564697266e-01,5.942408561706542969e+00,3.433227539062500000e-01,4.730224609375000000e-01,-1.594543457031250000e+00
4.560984373092651367e+01,7.958326339721679688e+00,-7.350199222564697266e-01,5.767632007598877841e+00,-3.356933593750000000e-01,4.730224609375000000e-01,-2.777099609375000000e+00
4.562392401695251465e+01,7.726088523864746094e+00,-7.350199222564697266e-01,5.817910194396972656e+00,-2.212524414062500000e-01,4.211425781250000000e+00,-2.777099609375000000e+00
4.563646888732910156e+01,7.726088523864746094e+00,-9.289502501487731934e-01,5.750872611999512607e+00,-3.356933593750000000e-01,-3.334045410156250000e+00,-7.629394531250000000e-02
4.565205359458923340e+01,7.606378555297852451e+00,-9.433154463768004261e-01,5.580883979797363281e+00,-2.212524414062500000e-01,1.968383789062500000e+00,-7.629394531250000000e-02
4.566290426254272461e+01,7.606378555297852451e+00,-9.433154463768004261e-01,5.580883979797363281e+00,-2.098083496093750000e+00,1.968383789062500000e+00,-2.571105957031250000e+00
4.567823362350463867e+01,7.692569732666016513e+00,-5.913677811622620739e-01,5.791574001312255859e+00,1.335144042968750000e+00,1.968383789062500000e+00,-2.571105957031250000e+00
4.569252038002014160e+01,7.692569732666016513e+00,-5.913677811622620739e-01,5.791574001312255859e+00,-3.021240234375000000e+00,5.088806152343750000e+00,-7.629394531250000000e-01
4.570549082756042480e+01,7.692569732666016513e+00,-1.027112483978271706e+00,6.074089527130127841e+00,1.754760742187500000e-01,5.088806152343750000e+00,-7.629394531250000000e-01
4.571962523460388184e+01,8.441954612731933594e+00,-1.084573388099670410e+00,5.722141742706298828e+00,-1.686096191406250000e+00,5.088806152343750000e+00,-7.629394531250000000e-01
4.573411488533020020e+01,8.441954612731933594e+00,-1.106121182441711426e+00,6.212953090667724609e+00,-1.686096191406250000e+00,5.973815917968750000e+00,7.781982421875000000e-01
4.574697828292846680e+01,8.439560890197753906e+00,-1.122880578041076882e+00,5.722141742706298828e+00,-1.686096191406250000e+00,-1.205444335937500000e+00,3.532409667968750000e+00
4.575906562805175781e+01,6.777985095977782315e+00,-1.122880578041076882e+00,5.978321552276611328e+00,-1.838684082031250000e+00,2.449035644531250000e+00,3.532409667968750000e+00
4.577654862403869629e+01,6.777985095977782315e+00,-8.667010068893432617e-01,5.702988147735596591e+00,-1.838684082031250000e+00,2.449035644531250000e+00,2.365112304687500000e+00
4.578792023658752441e+01,7.333439826965332031e+00,-8.667010068893432617e-01,5.628767967224121094e+00,-1.838684082031250000e+00,2.449035644531250000e+00,2.365112304687500000e+00
4.580051112174987793e+01,7.759607791900634766e+00,-9.744400978088380016e-01,5.628767967224121094e+00,2.288818359375000000e-02,6.874084472656250000e+00,9.078979492187500000e-01
4.581563830375671387e+01,7.759607791900634766e+00,-9.744400978088380016e-01,5.657498359680175781e+00,9.155273437500000000e-01,3.784179687500000000e+00,-7.629394531250000000e-01
4.582722854614257812e+01,7.879317760467528409e+00,-9.744400978088380016e-01,5.657498359680175781e+00,2.288818359375000000e-02,3.784179687500000000e+00,-7.629394531250000000e-01
4.584347772598266602e+01,8.207323074340820312e+00,-9.576806426048279919e-01,5.420472621917724609e+00,-2.609252929687500000e+00,3.784179687500000000e+00,6.637573242187500000e-01
4.585766673088073730e+01,7.879317760467528409e+00,-9.576806426048279919e-01,5.420472621917724609e+00,-2.609252929687500000e+00,2.700805664062500000e+00,2.578735351562500000e+00
4.586983203887939453e+01,7.563282966613769531e+00,-9.576806426048279919e-01,5.506663799285888672e+00,-4.196166992187500000e-01,2.700805664062500000e+00,6.637573242187500000e-01
4.588187479972839355e+01,7.563282966613769531e+00,-9.265560507774351917e-01,5.518634796142578125e+00,-4.196166992187500000e-01,2.700805664062500000e+00,-3.463745117187500000e+00
4.589964127540588379e+01,7.963114738464355469e+00,-1.010353088378906250e+00,5.542576789855957031e+00,-8.850097656250000000e-01,2.388000488281250000e+00,-3.463745117187500000e+00
4.591047477722167969e+01,7.963114738464355469e+00,-9.888052940368652344e-01,5.542576789855957031e+00,-8.850097656250000000e-01,5.897521972656250000e+00,-3.517150878906250000e+00
4.592480874061584473e+01,7.963114738464355469e+00,-9.888052940368652344e-01,5.542576789855957031e+00,-8.850097656250000000e-01,1.846313476562500000e+00,-3.524780273437500000e+00
4.593664979934692383e+01,7.972691535949707031e+00,-8.571242094039916992e-01,5.430049419403076172e+00,-3.303527832031250000e+00,3.242492675781250000e+00,-3.524780273437500000e+00
4.595151877403259277e+01,7.972691535949707031e+00,-8.571242094039916992e-01,5.430049419403076172e+00,-3.303527832031250000e+00,1.846313476562500000e+00,2.082824707031250000e+00
4.596665334701538086e+01,8.022970199584960938e+00,-9.983820915222167969e-01,5.571307182312011719e+00,-3.181457519531250000e+00,3.242492675781250000e+00,2.082824707031250000e+00
4.597831416130065918e+01,8.022970199584960938e+00,-9.983820915222167969e-01,5.899312973022460938e+00,-3.181457519531250000e+00,6.568908691406250000e+00,-1.686096191406250000e+00
4.599370908737182617e+01,8.022970199584960938e+00,-1.127668976783752441e+00,5.872976779937744141e+00,-3.181457519531250000e+00,6.568908691406250000e+00,-1.686096191406250000e+00
4.600911855697631836e+01,7.706934928894042969e+00,-9.361328482627867542e-01,5.872976779937744141e+00,-4.501342773437500000e-01,4.730224609375000000e+00,-1.686096191406250000e+00
4.601987147331237793e+01,7.663839340209960938e+00,-1.144428372383117676e+00,5.679046154022217685e+00,-4.501342773437500000e-01,4.730224609375000000e+00,2.792358398437500000e+00
4.603178024291992188e+01,7.663839340209960938e+00,-7.086836695671081543e-01,5.679046154022217685e+00,-3.692626953125000000e+00,7.385253906250000000e+00,-7.247924804687500000e-01
4.604723048210144043e+01,7.663839340209960938e+00,-1.144428372383117676e+00,5.679046154022217685e+00,-3.692626953125000000e+00,7.385253906250000000e+00,1.441955566406250000e+00
4.606237578392028809e+01,7.510610580444335938e+00,-1.182735562324524148e+00,5.367800235748291016e+00,-2.151489257812500000e+00,7.194519042968750000e+00,2.059936523437500000e-01
4.607433557510375977e+01,7.510610580444335938e+00,-1.182735562324524148e+00,5.367800235748291016e+00,-2.151489257812500000e+00,7.194519042968750000e+00,4.882812500000000000e-01
4.608963370323181152e+01,7.994239330291747159e+00,-1.331176161766052246e+00,6.138732910156250000e+00,-2.151489257812500000e+00,7.194519042968750000e+00,2.059936523437500000e-01
4.610127305984497070e+01,7.994239330291747159e+00,-1.065419793128967285e+00,6.138732910156250000e+00,-8.926391601562500000e-01,-4.272460937500000000e-01,-3.356933593750000000e-01
4.611648130416870117e+01,7.326257228851317471e+00,-1.458068847656250000e+00,5.432443618774414062e+00,-8.926391601562500000e-01,-4.272460937500000000e-01,-5.096435546875000000e+00
4.612884664535522461e+01,7.326257228851317471e+00,-1.065419793128967285e+00,5.432443618774414062e+00,-7.568359375000000000e+00,5.409240722656250000e+00,-6.080627441406250000e+00
4.614363479614257812e+01,7.266402244567871094e+00,-2.149993181228637695e+00,5.734112739562987393e+00,-2.487945556640625000e+01,5.409240722656250000e+00,-6.080627441406250000e+00
4.615527677536010742e+01,8.918400764465332031e+00,1.958456993103027566e+00,6.157886505126952237e+00,-2.487945556640625000e+01,2.449035644531250000e+00,4.013061523437500000e+00
4.617054963111877441e+01,8.918400764465332031e+00,-2.743755102157592773e+00,7.230488777160643643e+00,1.373291015625000000e-01,2.449035644531250000e+00,4.013061523437500000e+00
4.618454551696777344e+01,8.992621421813964844e+00,-5.051765441894531250e-01,7.884106159210205078e+00,4.348754882812500000e-01,4.165649414062500000e+00,4.013061523437500000e+00
4.619781255722045898e+01,8.992621421813964844e+00,-5.051765441894531250e-01,7.340622425079346591e+00,4.348754882812500000e-01,4.165649414062500000e+00,4.440307617187500000e+00
4.621175074577331543e+01,9.574412345886230469e+00,-5.051765441894531250e-01,7.340622425079346591e+00,-2.433776855468750000e+00,4.165649414062500000e+00,4.440307617187500000e+00
4.622443437576293945e+01,7.517793178558349609e+00,-1.393425345420837402e+00,6.042964935302733487e+00,-2.433776855468750000e+00,-3.440856933593750000e+00,4.440307617187500000e+00
4.623978948593139648e+01,7.553706169128417969e+00,-1.393425345420837402e+00,5.920860767364502841e+00,-1.541137695312500000e+00,8.491516113281250000e+00,1.846313476562500000e+00
4.625070452690124512e+01,7.553706169128417969e+00,-1.393425345420837402e+00,5.552153587341308594e+00,1.525878906250000000e-01,5.798339843750000000e-01,1.296997070312500000e+00
4.626605725288391113e+01,7.553706169128417969e+00,-7.254431247711181641e-01,5.920860767364502841e+00,1.525878906250000000e-01,1.075744628906250000e+00,1.296997070312500000e+00
4.627887535095214844e+01,7.922413349151611328e+00,-1.110909581184387207e+00,6.284779548645020419e+00,-2.677917480468750000e+00,9.231567382812500000e-01,1.296997070312500000e+00
4.629281139373779297e+01,7.015010833740233487e+00,-1.110909581184387207e+00,6.284779548645020419e+00,-5.226135253906250000e+00,9.231567382812500000e-01,1.571655273437500000e+00
4.630775284767150879e+01,8.212111473083496094e+00,-1.110909581184387207e+00,5.650315761566162109e+00,-5.226135253906250000e+00,9.231567382812500000e-01,-1.182556152343750000e+00
4.632257509231567383e+01,7.376535415649414062e+00,-1.175552964210510476e+00,5.650315761566162109e+00,-2.113342285156250000e+00,1.754760742187500000e-01,-2.098083496093750000e+00
4.633548855781555176e+01,7.750030994415282315e+00,-6.177040338516235352e-01,6.030993938446044922e+00,-2.113342285156250000e+00,9.078979492187500000e-01,-2.098083496093750000e+00
4.634754276275634766e+01,7.750030994415282315e+00,-8.930371999740600586e-01,6.030993938446044922e+00,-2.685546875000000000e+00,3.662109375000000000e-01,-1.441955566406250000e+00
4.636445331573486328e+01,7.750030994415282315e+00,-8.930371999740600586e-01,6.028599739074707031e+00,-3.395080566406250000e+00,3.662109375000000000e-01,1.792907714843750000e+00
4.637508153915405273e+01,7.551311969757080078e+00,-9.528922438621519886e-01,5.774814605712891513e+00,-3.395080566406250000e+00,3.662109375000000000e-01,1.792907714843750000e+00
4.638919901847839355e+01,7.496245384216308594e+00,-1.501164436340331809e+00,5.693411350250244141e+00,-5.569458007812500000e-01,-3.051757812500000000e-01,-5.363464355468750000e+00
4.640661358833312988e+01,7.496245384216308594e+00,-9.528922438621519886e-01,5.774814605712891513e+00,-5.569458007812500000e-01,1.243591308593750000e+00,-5.363464355468750000e+00
4.641773748397827148e+01,7.750030994415282315e+00,-1.019929885864257812e+00,6.026205539703369141e+00,-1.205444335937500000e+00,-3.051757812500000000e-01,-1.937866210937500000e+00
4.643103456497192383e+01,7.750030994415282315e+00,-1.019929885864257812e+00,6.026205539703369141e+00,-4.341125488281250000e+00,7.995605468750000000e+00,3.280639648437500000e-01
4.644539809226989746e+01,7.750030994415282315e+00,-1.019929885864257812e+00,6.026205539703369141e+00,-5.729675292968750000e+00,1.502990722656250000e+00,1.617431640625000000e+00
4.645877599716186523e+01,7.422025203704833984e+00,-1.053448677062988503e+00,5.858611583709717685e+00,-5.729675292968750000e+00,1.502990722656250000e+00,2.334594726562500000e+00
4.646977949142456055e+01,7.946355342864990234e+00,-1.053448677062988503e+00,6.069301128387451172e+00,-3.219604492187500000e+00,1.502990722656250000e+00,2.334594726562500000e+00
4.648745822906494141e+01,7.797914981842041016e+00,-1.154005169868469238e+00,5.851428985595702237e+00,-3.219604492187500000e+00,1.823425292968750000e+00,1.449584960937500000e-01
4.649780988693237305e+01,7.946355342864990234e+00,-1.154005169868469238e+00,6.069301128387451172e+00,-4.646301269531250000e+00,3.952026367187500000e+00,1.449584960937500000e-01
4.651173377037048340e+01,7.797914981842041016e+00,-1.154005169868469238e+00,5.851428985595702237e+00,-4.646301269531250000e+00,1.823425292968750000e+00,7.247924804687500000e-01
4.652942085266113281e+01,7.898471355438232422e+00,-1.307234048843383789e+00,5.856217384338378906e+00,-5.149841308593750000e+00,3.952026367187500000e+00,7.247924804687500000e-01
4.653977775573730469e+01,7.898471355438232422e+00,-1.307234048843383789e+00,5.856217384338378906e+00,-3.448486328125000000e+00,-1.502990722656250000e+00,-2.014160156250000000e+00
4.655478477478027344e+01,7.898471355438232422e+00,-1.307234048843383789e+00,5.856217384338378906e+00,-2.883911132812500000e+00,-1.502990722656250000e+00,-2.014160156250000000e+00
4.656563830375671387e+01,7.920019149780272549e+00,-9.576806426048279919e-01,5.880159378051757812e+00,-2.883911132812500000e+00,-1.502990722656250000e+00,-2.822875976562500000e+00
4.658120560646057129e+01,8.121131896972656250e+00,-9.576806426048279919e-01,5.959167957305907315e+00,-3.852844238281250000e+00,2.380371093750000000e+00,-2.220153808593750000e+00
4.659308362007141113e+01,8.121131896972656250e+00,-9.576806426048279919e-01,5.959167957305907315e+00,-6.072998046875000000e+00,2.380371093750000000e+00,-2.220153808593750000e+00
4.660883569717407227e+01,7.896077156066894531e+00,-1.242590665817260742e+00,5.896918773651122159e+00,-6.072998046875000000e+00,-3.814697265625000000e-02,2.204895019531250000e+00
4.662324166297912598e+01,7.398083209991455078e+00,-1.242590665817260742e+00,5.841852188110352451e+00,-4.753112792968750000e+00,-3.814697265625000000e-02,2.204895019531250000e+00
4.663559341430664062e+01,7.398083209991455078e+00,-1.288080453872680886e+00,5.841852188110352451e+00,-4.753112792968750000e+00,-3.814697265625000000e-02,-2.067565917968750000e+00
4.665022945404052734e+01,7.398083209991455078e+00,-1.288080453872680886e+00,5.841852188110352451e+00,-4.753112792968750000e+00,-2.525329589843750000e+00,-2.067565917968750000e+00
4.666193890571594238e+01,8.262390136718750000e+00,-1.288080453872680886e+00,6.011840343475342685e+00,-4.768371582031250000e+00,-2.525329589843750000e+00,-2.067565917968750000e+00
4.667724490165710449e+01,8.214506149291992188e+00,-1.048660278320312500e+00,6.059724330902099609e+00,-4.768371582031250000e+00,-6.599426269531250000e+00,-4.043579101562500000e-01
4.668924355506896973e+01,8.214506149291992188e+00,-1.048660278320312500e+00,6.059724330902099609e+00,-4.768371582031250000e+00,-4.882812500000000000e+00,-4.043579101562500000e-01
4.670470356941223145e+01,7.371747016906737393e+00,-1.340752959251403809e+00,5.861005783081054688e+00,-3.028869628906250000e+00,-4.882812500000000000e+00,-4.043579101562500000e-01
4.671772670745849609e+01,7.302315235137939453e+00,-1.340752959251403809e+00,5.509057998657226562e+00,-3.028869628906250000e+00,2.548217773437500000e+00,-1.998901367187500000e+00
4.673074293136596680e+01,7.371747016906737393e+00,-1.252167463302612305e+00,5.861005783081054688e+00,-4.714965820312500000e+00,2.548217773437500000e+00,-2.494812011718750000e+00
4.674589514732360840e+01,7.302315235137939453e+00,-1.252167463302612305e+00,5.509057998657226562e+00,-4.714965820312500000e+00,2.418518066406250000e+00,-1.998901367187500000e+00
4.675782227516174316e+01,7.745242595672607422e+00,-1.185129880905151367e+00,5.872976779937744141e+00,-4.714965820312500000e+00,2.418518066406250000e+00,-2.494812011718750000e+00
4.677358913421630859e+01,7.745242595672607422e+00,-1.091755986213684082e+00,5.872976779937744141e+00,-4.463195800781250000e+00,-3.364562988281250000e+00,-2.388000488281250000e+00
4.678499913215637207e+01,7.745242595672607422e+00,-1.091755986213684082e+00,5.872976779937744141e+00,-5.027770996093750000e+00,-3.364562988281250000e+00,-2.388000488281250000e+00
4.680096697807312012e+01,7.941566944122313565e+00,-1.120486378669738770e+00,5.997475147247314453e+00,-5.569458007812500000e+00,-3.364562988281250000e+00,-2.388000488281250000e+00
4.681197404861450195e+01,7.565677165985107422e+00,-1.180341362953186035e+00,5.997475147247314453e+00,-6.301879882812500000e+00,3.021240234375000000e+00,-2.693176269531250000e+00
4.682800364494323730e+01,7.941566944122313565e+00,-1.120486378669738770e+00,6.028599739074707031e+00,-7.011413574218750000e+00,3.021240234375000000e+00,-2.693176269531250000e+00
4.684208106994628906e+01,7.565677165985107422e+00,-1.180341362953186035e+00,6.028599739074707031e+00,-6.301879882812500000e+00,2.822875976562500000e+00,-7.247924804687500000e-01
4.685428667068481445e+01,7.529764175415039062e+00,-1.024718284606933594e+00,5.877765178680419922e+00,-8.178710937500000000e+00,2.822875976562500000e+00,-7.247924804687500000e-01
4.686991143226623535e+01,7.529764175415039062e+00,-1.510741233825683594e+00,5.796362400054932529e+00,-6.072998046875000000e+00,-4.440307617187500000e+00,3.204345703125000000e-01
4.688107132911682129e+01,7.529764175415039062e+00,-1.510741233825683594e+00,5.877765178680419922e+00,-6.072998046875000000e+00,5.783081054687500000e+00,3.204345703125000000e-01
4.689653897285461426e+01,7.759607791900634766e+00,-1.510741233825683594e+00,6.141127109527587891e+00,-6.072998046875000000e+00,5.783081054687500000e+00,3.204345703125000000e-01
4.690879464149475098e+01,6.830657482147217685e+00,-1.470039844512939675e+00,6.141127109527587891e+00,-5.348205566406250000e+00,5.783081054687500000e+00,-1.815795898437500000e+00
4.692291092872619629e+01,8.056488990783691406e+00,-1.376665949821472168e+00,6.574477672576903409e+00,-7.888793945312500000e+00,6.195068359375000000e+00,-1.815795898437500000e+00
4.693847537040710449e+01,8.039729118347167969e+00,-1.470039844512939675e+00,6.361393928527832031e+00,-5.348205566406250000e+00,-3.593444824218750000e+00,-8.621215820312500000e-01
4.695281434059143066e+01,8.039729118347167969e+00,-1.376665949821472168e+00,6.361393928527832031e+00,-5.500793457031250000e+00,6.195068359375000000e+00,-8.621215820312500000e-01
4.696478390693664551e+01,8.039729118347167969e+00,-1.829170107841491921e+00,6.148309707641602451e+00,-5.500793457031250000e+00,-2.975463867187500000e-01,-8.621215820312500000e-01
4.697687482833862305e+01,7.788338184356689453e+00,-1.271321058273315430e+00,6.143521308898925781e+00,-5.744934082031250000e+00,6.568908691406250000e+00,-1.686096191406250000e+00
4.699463415145874023e+01,7.788338184356689453e+00,-1.089361786842346191e+00,6.081272125244141513e+00,-5.744934082031250000e+00,-2.975463867187500000e-01,2.136230468750000000e+00
4.700551509857177734e+01,7.788338184356689453e+00,-1.089361786842346191e+00,6.143521308898925781e+00,-5.744934082031250000e+00,4.211425781250000000e+00,-7.934570312500000000e-01
4.701936316490173340e+01,8.054094314575195312e+00,-1.089361786842346191e+00,6.593631267547607422e+00,-9.391784667968750000e+00,-1.380920410156250000e+00,2.090454101562500000e+00
4.703361511230468750e+01,8.054094314575195312e+00,-1.180341362953186035e+00,6.593631267547607422e+00,-1.945495605468750000e+01,2.777099609375000000e+00,2.090454101562500000e+00
4.704565000534057617e+01,8.030152320861816406e+00,-8.092401623725891113e-01,6.086060523986816406e+00,-1.945495605468750000e+01,1.403808593750000000e+00,4.760742187500000000e+00
4.705789232254028320e+01,7.122749805450440341e+00,-1.180341362953186035e+00,5.872976779937744141e+00,-1.866912841796875000e+01,1.403808593750000000e+00,4.760742187500000000e+00
4.707561802864074707e+01,6.672639846801757812e+00,-2.219424962997436523e+00,3.883395195007323775e+00,-1.251220703125000000e+01,1.403808593750000000e+00,-3.952026367187500000e+00
4.708784365653991699e+01,6.672639846801757812e+00,-2.219424962997436523e+00,3.883395195007323775e+00,-5.805969238281250000e+00,1.083374023437500000e+01,-1.103973388671875000e+01
4.709991693496704102e+01,7.541735172271727627e+00,-1.625662922859191895e+00,4.967968463897705078e+00,5.706787109375000000e+00,1.083374023437500000e+01,-1.103973388671875000e+01
4.711766219139099121e+01,7.829039573669433594e+00,-1.443703651428222878e+00,6.555324077606201172e+00,5.706787109375000000e+00,7.949829101562500000e+00,-4.898071289062500000e+00
4.712828207015991211e+01,7.829039573669433594e+00,-1.197100877761840820e+00,6.555324077606201172e+00,-1.266479492187500000e+00,6.256103515625000000e+00,-4.150390625000000000e+00
4.714224481582641602e+01,7.829039573669433594e+00,-1.063025593757629395e+00,6.835445880889892578e+00,-1.068115234375000000e+01,-3.967285156250000000e-01,-2.182006835937500000e+00
4.715955066680908203e+01,8.331821441650388849e+00,-1.197100877761840820e+00,6.366182327270507812e+00,-1.068115234375000000e+01,-2.540588378906250000e+00,1.564025878906250000e+00
4.717056322097778320e+01,8.331821441650388849e+00,-1.850717902183532715e+00,5.832275390625000000e+00,-1.062774658203125000e+01,-3.967285156250000000e-01,1.564025878906250000e+00
4.718472051620483398e+01,7.244854450225830078e+00,-1.850717902183532715e+00,5.430049419403076172e+00,-8.529663085937500000e+00,1.319885253906250000e+00,-2.426147460937500000e+00
4.719867658615112305e+01,7.194575786590576172e+00,-1.869871497154236062e+00,5.403713226318358487e+00,-4.104614257812500000e+00,1.319885253906250000e+00,-3.387451171875000000e+00
4.721097946166992188e+01,7.244854450225830078e+00,-1.704671621322631836e+00,5.430049419403076172e+00,-9.307861328125000000e-01,2.235412597656250000e+00,-3.425598144531250000e+00
4.722330880165100098e+01,7.194575786590576172e+00,-1.738190412521362305e+00,5.856217384338378906e+00,-9.307861328125000000e-01,1.342773437500000000e+00,-3.425598144531250000e+00
4.723820590972900391e+01,7.647079944610596591e+00,-1.371877551078796387e+00,6.191405296325683594e+00,-2.655029296875000000e+00,2.441406250000000000e+00,-4.013061523437500000e+00
4.725028109550476074e+01,7.826645374298096591e+00,-1.371877551078796387e+00,6.071695327758789062e+00,-5.165100097656250000e+00,2.441406250000000000e+00,-4.013061523437500000e+00
4.726556897163391113e+01,7.826645374298096591e+00,-1.371877551078796387e+00,6.071695327758789062e+00,-5.165100097656250000e+00,2.441406250000000000e+00,-1.770019531250000000e+00
4.727977299690246582e+01,7.486668586730957031e+00,-1.611297726631164551e+00,5.786785602569580078e+00,-5.165100097656250000e+00,4.058837890625000000e+00,-1.770019531250000000e+00
4.729291272163391113e+01,7.486668586730957031e+00,-1.611297726631164551e+00,5.786785602569580078e+00,-6.546020507812500000e+00,7.705688476562500000e-01,2.975463867187500000e-01
4.730768156051635742e+01,7.608772754669188565e+00,-1.264138460159301758e+00,6.093243122100830078e+00,-8.560180664062500000e+00,3.906250000000000000e+00,-5.645751953125000000e-01
4.731855511665344238e+01,7.608772754669188565e+00,-1.264138460159301758e+00,6.093243122100830078e+00,-8.560180664062500000e+00,7.705688476562500000e-01,2.975463867187500000e-01
4.733366894721984863e+01,7.371747016906737393e+00,-1.800439596176147683e+00,6.086060523986816406e+00,-7.743835449218750000e+00,3.906250000000000000e+00,-5.645751953125000000e-01
4.734678149223327637e+01,7.321468830108642578e+00,-1.800439596176147683e+00,5.973533153533936435e+00,-7.011413574218750000e+00,-6.179809570312500000e-01,-1.823425292968750000e+00
4.736084628105163574e+01,7.187393188476562500e+00,-1.587355732917785645e+00,5.861005783081054688e+00,-4.463195800781250000e+00,3.906250000000000000e+00,-4.058837890625000000e+00
4.737621212005615234e+01,7.321468830108642578e+00,-1.587355732917785645e+00,5.861005783081054688e+00,-4.463195800781250000e+00,-6.179809570312500000e-01,-4.058837890625000000e+00
4.738822221755981445e+01,7.462726593017577237e+00,-1.620874524116515891e+00,6.380547523498535156e+00,-4.112243652343750000e+00,-1.464843750000000000e+00,-9.841918945312500000e-01
4.740360760688781738e+01,7.462726593017577237e+00,-1.620874524116515891e+00,6.380547523498535156e+00,-4.646301269531250000e+00,-1.464843750000000000e+00,-9.841918945312500000e-01
4.741546678543090820e+01,7.462726593017577237e+00,-1.616086125373840332e+00,6.191405296325683594e+00,-8.796691894531250000e+00,-2.212524414062500000e-01,-1.342773437500000000e+00
4.743064570426940918e+01,7.383718013763427734e+00,-1.616086125373840332e+00,6.181828498840332031e+00,-8.796691894531250000e+00,-2.212524414062500000e-01,-1.342773437500000000e+00
4.744146776199340820e+01,7.843404769897460938e+00,-1.616086125373840332e+00,6.112396717071532315e+00,-7.453918457031250000e+00,-2.212524414062500000e-01,-1.342773437500000000e+00
4.745783567428588867e+01,7.278373241424559659e+00,-1.604115128517150879e+00,5.865794181823730469e+00,-7.064819335937500000e+00,-1.472473144531250000e+00,-1.075744628906250000e+00
4.747196507453918457e+01,7.963114738464355469e+00,-1.604115128517150879e+00,6.112396717071532315e+00,-7.064819335937500000e+00,3.639221191406250000e+00,-3.021240234375000000e+00
4.748375940322875977e+01,7.855375766754150391e+00,-1.707065820693969505e+00,6.153098106384277344e+00,-7.064819335937500000e+00,-1.472473144531250000e+00,-1.075744628906250000e+00
4.749987602233886719e+01,7.855375766754150391e+00,-1.707065820693969505e+00,6.153098106384277344e+00,-5.569458007812500000e+00,8.926391601562500000e-01,-4.348754882812500000e-01
4.751124358177185059e+01,7.855375766754150391e+00,-1.707065820693969505e+00,6.064512729644775391e+00,-5.569458007812500000e+00,8.926391601562500000e-01,-4.348754882812500000e-01
4.752567362785339355e+01,7.350199222564697266e+00,-1.833958506584167703e+00,5.908889770507812500e+00,-6.874084472656250000e+00,8.926391601562500000e-01,-1.853942871093750000e+00
4.754180288314819336e+01,7.824251174926757812e+00,-1.833958506584167703e+00,5.700593948364257812e+00,-7.301330566406250000e+00,-6.256103515625000000e-01,-1.853942871093750000e+00
4.755295705795288086e+01,7.350199222564697266e+00,-1.881842494010925293e+00,5.700593948364257812e+00,-7.614135742187500000e+00,-2.296447753906250000e+00,-1.693725585937500000e+00
4.756868314743041992e+01,7.481880187988281250e+00,-1.630451321601867676e+00,5.815515995025634766e+00,-7.614135742187500000e+00,-2.021789550781250000e+00,2.288818359375000000e+00
4.758252668380737305e+01,7.481880187988281250e+00,-1.719036817550659180e+00,5.815515995025634766e+00,-8.422851562500000000e+00,-2.296447753906250000e+00,2.288818359375000000e+00
4.759562945365905762e+01,7.685387134552002841e+00,-1.630451321601867676e+00,6.777985095977782315e+00,-9.780883789062500000e+00,-2.021789550781250000e+00,2.159118652343750000e+00
4.760742068290710449e+01,7.714117527008057529e+00,-1.654393315315246582e+00,5.638344764709472656e+00,-1.155090332031250000e+01,-7.644653320312500000e+00,1.380920410156250000e+00
4.762456774711608887e+01,7.714117527008057529e+00,-1.654393315315246582e+00,5.837063789367675781e+00,-1.155090332031250000e+01,-2.494812011718750000e+00,1.380920410156250000e+00
4.763547086715698242e+01,7.259219646453857422e+00,-1.680729508399963379e+00,5.837063789367675781e+00,-9.407043457031250000e+00,-2.494812011718750000e+00,1.380920410156250000e+00
4.764911341667175293e+01,7.074865818023682529e+00,-1.680729508399963379e+00,6.452373504638672763e+00,-7.263183593750000000e+00,-2.388000488281250000e+00,-1.693725585937500000e+00
4.766334748268127441e+01,7.022193431854247159e+00,-1.122880578041076882e+00,6.452373504638672763e+00,-7.263183593750000000e+00,8.430480957031250000e+00,-1.693725585937500000e+00
4.767648220062255859e+01,7.022193431854247159e+00,-1.122880578041076882e+00,6.574477672576903409e+00,-7.263183593750000000e+00,8.430480957031250000e+00,7.934570312500000000e-01
4.769108867645263672e+01,6.940790653228759766e+00,-1.122880578041076882e+00,5.391742229461669922e+00,-2.334594726562500000e+00,8.430480957031250000e+00,7.934570312500000000e-01
4.770538544654846191e+01,5.746084213256835938e+00,-1.747767210006714089e+00,6.854599475860596591e+00,1.668548583984375000e+01,1.427459716796875000e+01,-7.888793945312500000e+00
4.771841335296630859e+01,5.746084213256835938e+00,-1.747767210006714089e+00,5.391742229461669922e+00,2.673339843750000000e+01,4.678344726562500000e+01,-1.966857910156250000e+01
4.772997021675109863e+01,5.746084213256835938e+00,-3.234566450119018555e+00,9.911994934082032360e-01,1.096572875976562358e+02,4.678344726562500000e+01,-2.051544189453125000e+01
4.774753189086914062e+01,4.486733913421630859e+00,-4.910507678985596591e+00,-3.493140220642089844e+00,1.475296020507812500e+02,4.792785644531250000e+01,-2.051544189453125000e+01
4.776103305816650391e+01,4.486733913421630859e+00,-4.910507678985596591e+00,-7.036558628082275391e+00,2.499923706054687500e+02,-2.292633056640625000e+01,-2.051544189453125000e+01
4.777165818214416504e+01,1.543302345275878729e+01,-1.635239720344543679e+00,-7.036558628082275391e+00,2.499923706054687500e+02,-1.735458374023437500e+02,-3.092193603515625000e+01
4.778955030441284180e+01,1.543302345275878729e+01,2.798821687698364258e+00,1.961270141601562500e+01,2.970123291015625000e+01,-1.735458374023437500e+02,-3.434753417968750000e+01
4.780009102821350098e+01,1.543302345275878729e+01,-1.635239720344543679e+00,1.961270141601562500e+01,-1.185607910156250000e+01,6.629943847656250000e+00,-3.434753417968750000e+01
4.781455469131469727e+01,1.144907188415527344e+01,-3.021482467651366743e+00,5.231330394744873047e+00,1.429748535156250000e+01,6.629943847656250000e+00,-1.494598388671875000e+01
4.782855367660522461e+01,4.206612110137940341e+00,-3.021482467651366743e+00,5.231330394744873047e+00,1.001739501953125000e+01,6.629943847656250000e+00,-1.494598388671875000e+01
4.784140038490295410e+01,4.206612110137940341e+00,-3.734954595565795898e-01,5.377377033233643466e+00,1.001739501953125000e+01,-3.700256347656250000e+00,-8.979797363281250000e+00
4.785315370559692383e+01,4.247313976287841797e+00,-3.734954595565795898e-01,5.473145008087158203e+00,9.498596191406250000e+00,-3.700256347656250000e+00,-8.979797363281250000e+00
4.786874461174011230e+01,4.247313976287841797e+00,-6.823474764823913574e-01,5.377377033233643466e+00,5.111694335937500000e+00,-3.700256347656250000e+00,-6.378173828125000000e+00
4.788292360305786133e+01,4.247313976287841797e+00,-1.067813992500305176e+00,4.613626480102539062e+00,-1.785278320312500000e+00,-6.240844726562500000e+00,-4.974365234375000000e+00
4.789491271972656250e+01,7.800309181213378906e+00,-2.219424962997436523e+00,4.613626480102539062e+00,-1.785278320312500000e+00,7.095336914062500000e-01,-4.974365234375000000e+00
4.790998768806457520e+01,7.800309181213378906e+00,-2.219424962997436523e+00,5.434837818145751953e+00,7.629394531250000000e+00,1.075744628906250000e+00,-4.257202148437500000e+00
4.792157483100891113e+01,8.389282226562500000e+00,-9.576806798577308655e-03,7.261613845825195312e+00,7.629394531250000000e+00,3.082275390625000000e+00,-3.448486328125000000e+00
4.793725562095642090e+01,6.600813865661621094e+00,-9.576806798577308655e-03,7.261613845825195312e+00,-1.388549804687500000e+00,3.082275390625000000e+00,-3.448486328125000000e+00
4.794921350479125977e+01,6.940790653228759766e+00,-1.419761538505554199e+00,5.734112739562987393e+00,-1.388549804687500000e+00,3.509521484375000000e+00,-3.448486328125000000e+00
4.796365594863891602e+01,6.940790653228759766e+00,-1.419761538505554199e+00,5.734112739562987393e+00,2.456665039062500000e+00,-2.571105957031250000e+00,-3.143310546875000000e+00
4.797676086425781250e+01,7.309497833251952237e+00,-6.057330369949340820e-01,6.258443355560302734e+00,3.601074218750000000e+00,-2.189636230468750000e+00,-3.143310546875000000e+00
4.799030518531799316e+01,8.171410560607910156e+00,-3.447650372982025146e-01,6.418854713439941406e+00,3.601074218750000000e+00,-2.189636230468750000e+00,-2.838134765625000000e+00
4.800579261779785156e+01,7.417236804962157315e+00,-3.447650372982025146e-01,6.418854713439941406e+00,1.296997070312500000e+00,-9.002685546875000000e-01,5.035400390625000000e-01
4.801888322830200195e+01,7.814674377441406250e+00,-9.145850539207458496e-01,6.251260757446289062e+00,1.296997070312500000e+00,-7.476806640625000000e-01,-9.384155273437500000e-01
4.803445744514465332e+01,7.417236804962157315e+00,-9.145850539207458496e-01,6.251260757446289062e+00,2.258300781250000000e+00,-7.476806640625000000e-01,-1.144409179687500000e-01
4.804594159126281738e+01,7.302315235137939453e+00,-2.681505978107452393e-01,6.567295074462891513e+00,2.258300781250000000e+00,1.144409179687500000e-01,-9.384155273437500000e-01
4.806015610694885254e+01,7.302315235137939453e+00,-2.681505978107452393e-01,6.567295074462891513e+00,7.324218750000000000e-01,-2.784729003906250000e+00,-1.144409179687500000e-01
4.807235074043273926e+01,7.302315235137939453e+00,-9.792284965515135609e-01,5.968744754791259766e+00,7.324218750000000000e-01,2.845764160156250000e+00,3.051757812500000000e-02
4.808785867691040039e+01,7.805097579956054688e+00,-9.792284965515135609e-01,5.968744754791259766e+00,2.029418945312500000e+00,-2.075195312500000000e+00,3.051757812500000000e-02
4.810230064392089844e+01,7.805097579956054688e+00,-6.392518281936645508e-01,6.016628742218017578e+00,2.029418945312500000e+00,-1.754760742187500000e+00,3.051757812500000000e-02
4.811456799507141113e+01,7.805097579956054688e+00,-6.368576288223266602e-01,6.447585105895996094e+00,1.968383789062500000e+00,-2.075195312500000000e+00,4.959106445312500000e-01
4.812991142272949219e+01,7.211335182189941406e+00,-6.368576288223266602e-01,6.016628742218017578e+00,1.968383789062500000e+00,-1.754760742187500000e+00,4.959106445312500000e-01
4.814128303527832031e+01,7.211335182189941406e+00,-8.667010068893432617e-01,6.169857501983642578e+00,2.632141113281250000e+00,-2.906799316406250000e+00,3.814697265625000000e-01
4.815567111968994141e+01,7.211335182189941406e+00,-8.667010068893432617e-01,6.169857501983642578e+00,2.632141113281250000e+00,5.874633789062500000e-01,-1.281738281250000000e+00
4.817046761512756348e+01,7.874529361724852627e+00,-8.451532125473022461e-01,6.617573261260986328e+00,1.029968261718750000e+00,-1.373291015625000000e+00,-1.281738281250000000e+00
4.818345332145690918e+01,7.821856975555419922e+00,-4.525041282176970880e-01,6.617573261260986328e+00,1.029968261718750000e+00,5.874633789062500000e-01,-1.281738281250000000e+00
4.819767832756042480e+01,7.821856975555419922e+00,-8.451532125473022461e-01,6.404489517211914062e+00,1.510620117187500000e+00,-1.373291015625000000e+00,-5.187988281250000000e-01
4.821241259574890137e+01,7.302315235137939453e+00,-8.092401623725891113e-01,6.306327342987060547e+00,1.541137695312500000e+00,1.296997070312500000e+00,-5.187988281250000000e-01
4.822518944740295410e+01,7.292738437652587891e+00,-9.504980444908142090e-01,6.059724330902099609e+00,1.899719238281250000e+00,-2.708435058593750000e+00,-5.187988281250000000e-01
4.823693013191223145e+01,7.292738437652587891e+00,-8.092401623725891113e-01,6.059724330902099609e+00,1.899719238281250000e+00,-1.220703125000000000e+00,-2.418518066406250000e+00
4.825492119789123535e+01,7.429207801818847656e+00,-6.607996821403503418e-01,6.162674903869628906e+00,2.723693847656250000e+00,-1.220703125000000000e+00,-2.059936523437500000e-01
4.826684474945068359e+01,7.682992935180664062e+00,-5.674257874488830566e-01,6.385335922241210938e+00,1.785278320312500000e+00,-1.220703125000000000e+00,-7.629394531250000000e-01
4.827935290336608887e+01,7.682992935180664062e+00,-3.543418347835540771e-01,6.385335922241210938e+00,3.356933593750000000e-01,-1.213073730468750000e+00,1.831054687500000000e-01
4.829632663726806641e+01,7.501033782958983487e+00,-3.543418347835540771e-01,5.808333396911621094e+00,3.356933593750000000e-01,-2.738952636718750000e+00,-7.324218750000000000e-01
4.830751538276672363e+01,6.943184852600097656e+00,-3.543418347835540771e-01,5.808333396911621094e+00,1.914978027343750000e+00,-2.738952636718750000e+00,-7.324218750000000000e-01
4.832105970382690430e+01,6.943184852600097656e+00,-1.130063176155090332e+00,5.846640586853027344e+00,2.166748046875000000e+00,-2.738952636718750000e+00,-7.324218750000000000e-01
4.833565163612365723e+01,8.556877136230468750e+00,-1.101332753896713257e-01,6.533776283264160156e+00,1.914978027343750000e+00,-2.693176269531250000e+00,1.068115234375000000e-01
4.834904074668884277e+01,8.556877136230468750e+00,-4.548983275890350342e-02,6.627150058746337891e+00,2.670288085937500000e-01,-8.010864257812500000e-01,4.043579101562500000e-01
4.835983824729919434e+01,6.864176273345947266e+00,-4.548983275890350342e-02,6.627150058746337891e+00,2.670288085937500000e-01,-8.621215820312500000e-01,4.043579101562500000e-01
4.837742924690246582e+01,6.864176273345947266e+00,-3.303998410701752264e-01,6.356605529785156250e+00,3.196716308593750000e+00,-3.585815429687500000e-01,-1.922607421875000000e+00
4.839048337936401367e+01,6.921637058258057529e+00,-4.165910780429840088e-01,5.954379558563232422e+00,3.196716308593750000e+00,-3.585815429687500000e-01,-2.044677734375000000e+00
4.840248107910156250e+01,7.733271598815917969e+00,-4.165910780429840088e-01,5.954379558563232422e+00,2.449035644531250000e+00,-3.585815429687500000e-01,-2.044677734375000000e+00
4.841672253608703613e+01,7.733271598815917969e+00,-5.865793824195861816e-01,6.256049156188964844e+00,9.765625000000000000e-01,-4.730224609375000000e-01,2.593994140625000000e-01
4.842909479141235352e+01,7.733271598815917969e+00,-5.913677811622620739e-01,6.256049156188964844e+00,9.765625000000000000e-01,-4.730224609375000000e-01,2.593994140625000000e-01
4.844370651245117188e+01,7.766790390014647549e+00,-7.757213115692138672e-01,6.256049156188964844e+00,1.098632812500000000e+00,-4.730224609375000000e-01,2.593994140625000000e-01
4.845955872535705566e+01,7.766790390014647549e+00,-7.757213115692138672e-01,6.248866558074951172e+00,1.098632812500000000e+00,-2.746582031250000000e-01,-8.010864257812500000e-01
4.847161817550659180e+01,7.704540729522705078e+00,-7.757213115692138672e-01,6.351817131042480469e+00,9.384155273437500000e-01,1.228332519531250000e+00,-8.010864257812500000e-01
4.848578476905822754e+01,7.704540729522705078e+00,-7.829039692878723145e-01,6.351817131042480469e+00,9.384155273437500000e-01,1.228332519531250000e+00,-8.010864257812500000e-01
4.849776768684387207e+01,7.704540729522705078e+00,-7.829039692878723145e-01,6.449979305267333984e+00,1.579284667968750000e+00,1.228332519531250000e+00,-1.022338867187500000e+00
4.851336073875427246e+01,7.572859764099121094e+00,-7.182605266571044922e-01,6.449979305267333984e+00,1.579284667968750000e+00,2.357482910156250000e+00,-1.022338867187500000e+00
4.852582311630249023e+01,7.572859764099121094e+00,-7.182605266571044922e-01,6.418854713439941406e+00,6.561279296875000000e-01,2.357482910156250000e+00,-1.022338867187500000e+00
4.854022502899169922e+01,7.572859764099121094e+00,-7.182605266571044922e-01,6.418854713439941406e+00,3.051757812500000000e-02,2.822875976562500000e-01,-1.556396484375000000e+00
4.855214810371398926e+01,8.324639320373535156e+00,-2.346317619085311890e-01,5.734112739562987393e+00,6.561279296875000000e-01,2.822875976562500000e-01,-1.556396484375000000e+00
4.856681036949157715e+01,6.445190906524657315e+00,3.399766445159912109e+00,6.619967460632324219e+00,1.126098632812500000e+01,8.186340332031250000e+00,-9.323120117187500000e+00
4.857886576652526855e+01,1.297417926788330078e+01,3.399766445159912109e+00,7.730876922607422763e+00,1.126098632812500000e+01,8.186340332031250000e+00,-9.323120117187500000e+00
4.859436726570129395e+01,6.335057735443115234e+00,2.736572504043579102e+00,1.033576869964599609e+01,9.384155273437500000e-01,3.644561767578125000e+01,8.316040039062500000e+00
4.860876798629760742e+01,8.327033042907714844e+00,-1.039083480834960938e+00,1.033576869964599609e+01,9.384155273437500000e-01,-5.515289306640625000e+01,8.316040039062500000e+00
4.862144756317138672e+01,8.327033042907714844e+00,-1.039083480834960938e+00,4.149151325225830078e+00,9.384155273437500000e-01,4.462432861328125000e+01,-4.425048828125000000e-01
4.863562130928039551e+01,8.327033042907714844e+00,-1.039083480834960938e+00,4.149151325225830078e+00,2.243041992187500000e+00,1.602172851562500000e-01,-9.048461914062500000e+00
4.864773559570312500e+01,1.124077701568603693e+01,5.267243832349777222e-02,5.341464042663574219e+00,2.243041992187500000e+00,1.602172851562500000e-01,-4.425048828125000000e-01
4.866333150863647461e+01,9.639056205749511719e+00,5.267243832349777222e-02,5.341464042663574219e+00,2.243041992187500000e+00,1.602172851562500000e-01,-2.723693847656250000e+00
4.867596888542175293e+01,9.639056205749511719e+00,5.267243832349777222e-02,5.341464042663574219e+00,-2.319335937500000000e+00,9.002685546875000000e-01,-2.723693847656250000e+00
4.869076156616210938e+01,9.279925346374511719e+00,-1.891419291496276855e+00,4.333505153656006748e+00,-2.319335937500000000e+00,9.002685546875000000e-01,-2.723693847656250000e+00
4.870505213737487793e+01,9.083600997924804688e+00,-2.609679698944091797e-01,6.488286495208740234e+00,-1.731872558593750000e+00,9.002685546875000000e-01,-9.162902832031250000e+00
4.871798324584960938e+01,9.083600997924804688e+00,-2.609679698944091797e-01,6.488286495208740234e+00,-1.449584960937500000e+00,-2.235412597656250000e+00,1.419067382812500000e+00
4.873270654678344727e+01,7.766790390014647549e+00,-2.609679698944091797e-01,6.488286495208740234e+00,-1.449584960937500000e+00,-2.235412597656250000e+00,1.419067382812500000e+00
4.874492359161376953e+01,7.477091789245604581e+00,-8.619126081466674805e-01,5.248090267181396484e+00,1.060485839843750000e+00,-2.235412597656250000e+00,1.419067382812500000e+00
4.876000833511352539e+01,7.477091789245604581e+00,-8.619126081466674805e-01,5.248090267181396484e+00,1.525878906250000000e+00,1.876831054687500000e+00,-4.455566406250000000e+00
4.877136158943176270e+01,7.477091789245604581e+00,-7.637503147125244141e-01,6.500257492065429688e+00,2.487182617187500000e+00,1.876831054687500000e+00,-4.455566406250000000e+00
4.878579115867614746e+01,5.940014362335205078e+00,-7.637503147125244141e-01,6.500257492065429688e+00,2.487182617187500000e+00,-6.210327148437500000e+00,-2.334594726562500000e+00
4.880088067054748535e+01,8.403647422790527344e+00,-7.637503147125244141e-01,6.246472358703612393e+00,5.264282226562500000e-01,-1.094818115234375000e+01,-2.334594726562500000e+00
4.881258654594421387e+01,5.583278179168701172e+00,-2.408566951751708984e+00,6.246472358703612393e+00,-4.058837890625000000e+00,-6.210327148437500000e+00,-3.402709960937500000e+00
4.882807350158691406e+01,8.863334655761718750e+00,-2.341529130935668945e+00,5.951985359191895419e+00,-4.058837890625000000e+00,-8.163452148437500000e-01,-3.402709960937500000e+00
4.884263157844543457e+01,7.982268333435058594e+00,-2.341529130935668945e+00,6.670245647430419922e+00,-2.517700195312500000e-01,-8.163452148437500000e-01,-6.874084472656250000e+00
4.885463190078735352e+01,7.982268333435058594e+00,-3.711012601852416992e-01,6.670245647430419922e+00,-2.517700195312500000e-01,-8.163452148437500000e-01,1.853942871093750000e+00
4.886790895462036133e+01,7.189787387847900391e+00,-3.711012601852416992e-01,6.670245647430419922e+00,-2.517700195312500000e-01,-5.027770996093750000e+00,9.689331054687500000e-01
4.888502120971679688e+01,7.189787387847900391e+00,-6.105214357376098633e-01,5.288791656494141513e+00,2.677917480468750000e+00,3.852844238281250000e+00,9.689331054687500000e-01
4.889561057090759277e+01,7.189787387847900391e+00,-6.105214357376098633e-01,5.288791656494141513e+00,2.677917480468750000e+00,-1.205444335937500000e+00,-2.746582031250000000e+00
4.890942144393920898e+01,6.835445880889892578e+00,-2.633621692657471258e-01,6.272808551788330078e+00,-2.059936523437500000e-01,-1.205444335937500000e+00,-2.746582031250000000e+00
4.892671537399291992e+01,6.835445880889892578e+00,-2.633621692657471258e-01,7.429207801818847656e+00,-1.197814941406250000e+00,-1.205444335937500000e+00,-2.746582031250000000e+00
4.893759131431579590e+01,6.344634532928467685e+00,-2.633621692657471258e-01,6.272808551788330078e+00,-1.197814941406250000e+00,-1.525878906250000000e+01,-4.226684570312500000e+00
4.895172357559204102e+01,7.316680431365967685e+00,7.206547260284423828e-01,5.477933406829833984e+00,6.332397460937500000e-01,-1.525878906250000000e+01,-4.226684570312500000e+00
4.896554923057556152e+01,7.316680431365967685e+00,7.206547260284423828e-01,5.477933406829833984e+00,6.332397460937500000e-01,-1.525878906250000000e+01,-2.075195312500000000e+00
4.897736716270446777e+01,7.316680431365967685e+00,-1.077390789985656738e+00,6.641515254974365234e+00,6.332397460937500000e-01,-5.157470703125000000e+00,2.227783203125000000e+00
4.899021959304809570e+01,8.592789649963378906e+00,-1.077390789985656738e+00,6.641515254974365234e+00,7.575988769531250000e+00,-5.157470703125000000e+00,-1.815795898437500000e+00
4.900738263130187988e+01,7.232883453369141513e+00,9.576806798577308655e-03,6.153098106384277344e+00,7.575988769531250000e+00,-5.157470703125000000e+00,-1.815795898437500000e+00
4.901834750175476074e+01,7.232883453369141513e+00,9.576806798577308655e-03,6.153098106384277344e+00,1.800537109375000000e+00,-6.271362304687500000e+00,-1.815795898437500000e+00
4.903275275230407715e+01,7.232883453369141513e+00,-6.320692300796508789e-01,6.203376293182372159e+00,1.800537109375000000e+00,-4.425048828125000000e-01,-8.316040039062500000e-01
4.904956531524658203e+01,7.917624950408934659e+00,-9.241618514060974121e-01,6.203376293182372159e+00,1.800537109375000000e+00,-4.425048828125000000e-01,-8.316040039062500000e-01
4.906089472770690918e+01,7.917624950408934659e+00,-9.241618514060974121e-01,6.203376293182372159e+00,1.480102539062500000e+00,-4.425048828125000000e-01,-8.316040039062500000e-01
4.907476258277893066e+01,7.740454196929932529e+00,-6.488286256790161133e-01,5.789179801940917969e+00,1.220703125000000000e+00,-2.319335937500000000e+00,1.060485839843750000e+00
4.908595275878906250e+01,7.460332393646240234e+00,-6.009446382522583008e-01,6.447585105895996094e+00,1.220703125000000000e+00,-2.319335937500000000e+00,1.060485839843750000e+00
4.910143756866455078e+01,7.455543994903564453e+00,-2.442085742950439453e-01,6.409277915954589844e+00,8.926391601562500000e-01,6.790161132812500000e-01,-1.502990722656250000e+00
4.911352610588073730e+01,7.455543994903564453e+00,-2.442085742950439453e-01,6.409277915954589844e+00,8.926391601562500000e-01,6.790161132812500000e-01,-1.502990722656250000e+00
4.912814021110534668e+01,7.455543994903564453e+00,-6.200982332229614258e-01,6.028599739074707031e+00,1.121520996093750000e+00,-3.280639648437500000e-01,-1.502990722656250000e+00
4.914360809326171875e+01,7.529764175415039062e+00,-6.200982332229614258e-01,5.973533153533936435e+00,1.731872558593750000e+00,-1.060485839843750000e+00,-1.876831054687500000e+00
4.915566802024841309e+01,7.529764175415039062e+00,-5.937620401382446289e-01,5.973533153533936435e+00,1.121520996093750000e+00,-2.067565917968750000e+00,-1.876831054687500000e+00
4.916980171203613281e+01,7.445967197418212891e+00,-5.937620401382446289e-01,5.973533153533936435e+00,9.994506835937500000e-01,-2.067565917968750000e+00,-1.068115234375000000e+00
4.918210864067077637e+01,7.445967197418212891e+00,-5.602431893348693848e-01,5.940014362335205078e+00,9.994506835937500000e-01,-2.067565917968750000e+00,-5.569458007812500000e-01
4.919726800918579102e+01,7.855375766754150391e+00,-5.602431893348693848e-01,5.940014362335205078e+00,1.914978027343750000e+00,-1.815795898437500000e+00,-4.882812500000000000e-01
4.920891714096069336e+01,7.855375766754150391e+00,-3.256114125251770020e-01,5.899312973022460938e+00,1.914978027343750000e+00,-1.663208007812500000e+00,-4.882812500000000000e-01
4.922455644607543945e+01,7.508216381072997159e+00,-3.256114125251770020e-01,5.899312973022460938e+00,2.899169921875000000e-01,-1.663208007812500000e+00,-7.781982421875000000e-01
4.923635721206665039e+01,7.163451194763183594e+00,-4.357447028160095215e-01,5.504269599914550781e+00,2.899169921875000000e-01,0.000000000000000000e+00,-9.841918945312500000e-01
4.925169730186462402e+01,7.163451194763183594e+00,-7.086836695671081543e-01,5.504269599914550781e+00,1.907348632812500000e+00,4.547119140625000000e+00,-1.556396484375000000e+00
4.926569461822509766e+01,8.243236541748048651e+00,-8.044517636299133301e-01,5.401319026947021484e+00,1.907348632812500000e+00,4.547119140625000000e+00,-1.556396484375000000e+00
4.927873468399047852e+01,8.243236541748048651e+00,-8.044517636299133301e-01,5.798756599426269531e+00,1.838684082031250000e+00,1.495361328125000000e+00,-1.556396484375000000e+00
4.929701948165893555e+01,6.866570472717285156e+00,-5.099649429321289062e-01,5.798756599426269531e+00,1.060485839843750000e+00,1.487731933593750000e+00,1.129150390625000000e+00
4.930873966217041016e+01,6.866570472717285156e+00,-3.591302633285522461e-01,6.370970726013183594e+00,1.060485839843750000e+00,-1.731872558593750000e+00,-1.770019531250000000e+00
4.931970477104187012e+01,7.867346763610839844e+00,-3.591302633285522461e-01,6.421248912811278409e+00,1.060485839843750000e+00,-2.151489257812500000e+00,-1.419067382812500000e+00
4.933471727371215820e+01,7.867346763610839844e+00,-3.016694188117980957e-01,6.749254703521728516e+00,-3.585815429687500000e-01,-1.731872558593750000e+00,-1.419067382812500000e+00
4.934795832633972168e+01,7.632714748382567471e+00,-3.016694188117980957e-01,6.749254703521728516e+00,-3.585815429687500000e-01,-9.689331054687500000e-01,-6.103515625000000000e-01
4.936257743835449219e+01,7.292738437652587891e+00,-7.015010714530944824e-01,5.803544998168945312e+00,2.281188964843750000e+00,-9.689331054687500000e-01,1.068115234375000000e-01
4.937454557418823242e+01,7.292738437652587891e+00,-7.015010714530944824e-01,5.803544998168945312e+00,2.281188964843750000e+00,-9.689331054687500000e-01,-6.103515625000000000e-01
4.938993120193481445e+01,7.292738437652587891e+00,-2.681505978107452393e-01,6.210558891296387607e+00,8.392333984375000000e-01,2.227783203125000000e+00,-2.372741699218750000e+00
4.940406990051269531e+01,7.390900611877441406e+00,-2.681505978107452393e-01,6.210558891296387607e+00,8.392333984375000000e-01,2.227783203125000000e+00,-2.372741699218750000e+00
4.941641855239868164e+01,7.656656742095947266e+00,-2.681505978107452393e-01,5.928043365478516513e+00,1.296997070312500000e+00,-1.731872558593750000e+00,-1.296997070312500000e-01
4.943357682228088379e+01,7.656656742095947266e+00,-2.226607501506805142e-01,5.928043365478516513e+00,1.296997070312500000e+00,-2.510070800781250000e+00,5.722045898437500000e-01
4.944520163536071777e+01,7.517793178558349609e+00,-2.226607501506805142e-01,5.944802761077880859e+00,4.730224609375000000e-01,-2.456665039062500000e+00,5.722045898437500000e-01
4.945869469642639160e+01,7.517793178558349609e+00,-3.926490843296051025e-01,5.944802761077880859e+00,-4.272460937500000000e-01,-2.456665039062500000e+00,6.103515625000000000e-02
4.947228336334228516e+01,7.841010570526122159e+00,-3.926490843296051025e-01,5.944802761077880859e+00,-4.272460937500000000e-01,-1.167297363281250000e+00,-3.890991210937500000e-01
4.948556590080261230e+01,7.891288757324218750e+00,-4.740519225597382147e-01,6.095637321472167969e+00,1.487731933593750000e+00,-1.167297363281250000e+00,-3.890991210937500000e-01
4.949727463722229004e+01,7.891288757324218750e+00,-4.740519225597382147e-01,6.095637321472167969e+00,1.487731933593750000e+00,-1.167297363281250000e+00,-3.890991210937500000e-01
4.951461720466613770e+01,7.455543994903564453e+00,-4.740519225597382147e-01,6.095637321472167969e+00,6.790161132812500000e-01,-3.814697265625000000e-02,-1.487731933593750000e+00
4.952680993080139160e+01,7.455543994903564453e+00,-3.687070608139038086e-01,6.291962146759032315e+00,6.790161132812500000e-01,-3.814697265625000000e-02,-1.487731933593750000e+00
4.953862214088439941e+01,7.912836551666259766e+00,-2.561795711517333984e-01,6.291962146759032315e+00,1.174926757812500000e+00,-3.814697265625000000e-02,-1.686096191406250000e+00
4.955696606636047363e+01,7.912836551666259766e+00,-2.442085742950439453e-01,6.291962146759032315e+00,1.174926757812500000e+00,-2.288818359375000000e-02,-1.686096191406250000e+00
4.956744623184204102e+01,7.534552574157714844e+00,-2.442085742950439453e-01,5.822698593139647549e+00,9.078979492187500000e-01,-2.288818359375000000e-02,-1.686096191406250000e+00
4.958112478256225586e+01,7.505822181701660156e+00,-6.272808313369750977e-01,5.671863555908202237e+00,9.078979492187500000e-01,-1.121520996093750000e+00,-3.814697265625000000e-01
4.959554624557495117e+01,7.208940982818603516e+00,-6.272808313369750977e-01,5.671863555908202237e+00,9.078979492187500000e-01,-1.121520996093750000e+00,-3.814697265625000000e-01
4.960760545730590820e+01,7.505822181701660156e+00,-2.442085742950439453e-01,6.588842868804932529e+00,1.182556152343750000e+00,-1.121520996093750000e+00,-3.814697265625000000e-01
4.961948108673095703e+01,7.675810337066650391e+00,-2.442085742950439453e-01,6.588842868804932529e+00,-5.493164062500000000e-01,4.577636718750000000e-01,-1.075744628906250000e+00
4.963740801811218262e+01,7.675810337066650391e+00,-2.442085742950439453e-01,6.442796707153320312e+00,5.493164062500000000e-01,4.577636718750000000e-01,-1.075744628906250000e+00
4.965033745765686035e+01,7.594407558441162109e+00,-3.950432837009429932e-01,6.172251701354980469e+00,3.967285156250000000e-01,4.577636718750000000e-01,-1.075744628906250000e+00
4.966253066062927246e+01,7.532158374786377841e+00,-3.016694188117980957e-01,6.342240333557128906e+00,3.967285156250000000e-01,5.035400390625000000e-01,-1.129150390625000000e+00
4.967951536178588867e+01,7.481880187988281250e+00,-3.950432837009429932e-01,6.172251701354980469e+00,3.967285156250000000e-01,-9.613037109375000000e-01,-6.332397460937500000e-01
4.969037938117980957e+01,7.469909191131592685e+00,-5.865793824195861816e-01,6.064512729644775391e+00,9.536743164062500000e-01,-6.179809570312500000e-01,-1.373291015625000000e+00
4.970431876182556152e+01,7.469909191131592685e+00,-5.865793824195861816e-01,6.064512729644775391e+00,1.174926757812500000e+00,-6.179809570312500000e-01,-9.689331054687500000e-01
4.971589612960815430e+01,7.654262542724608487e+00,-4.070142805576325018e-01,6.102819919586182529e+00,9.536743164062500000e-01,-6.179809570312500000e-01,-9.689331054687500000e-01
4.973098850250244141e+01,7.723694324493407315e+00,-4.070142805576325018e-01,6.102819919586182529e+00,3.890991210937500000e-01,-6.103515625000000000e-02,-4.196166992187500000e-01
4.974278497695922852e+01,7.654262542724608487e+00,-4.716577231884002130e-01,5.904101371765137607e+00,3.890991210937500000e-01,-7.629394531250000000e-02,-4.196166992187500000e-01
4.975847053527832031e+01,7.647079944610596591e+00,-4.716577231884002130e-01,5.904101371765137607e+00,5.722045898437500000e-01,-7.629394531250000000e-02,-9.384155273437500000e-01
4.977258944511413574e+01,7.635108947753906250e+00,-2.106897532939910889e-01,6.291962146759032315e+00,5.722045898437500000e-01,-2.288818359375000000e-01,-9.384155273437500000e-01
4.978578233718872070e+01,7.647079944610596591e+00,-2.106897532939910889e-01,6.291962146759032315e+00,5.035400390625000000e-01,-2.288818359375000000e-01,-4.196166992187500000e-01
4.980056595802307129e+01,7.635108947753906250e+00,-2.298433631658554077e-01,6.277596950531005859e+00,4.501342773437500000e-01,-8.163452148437500000e-01,-4.196166992187500000e-01
4.981174063682556152e+01,7.529764175415039062e+00,-2.298433631658554077e-01,6.174645900726317471e+00,5.035400390625000000e-01,-1.907348632812500000e-01,-4.196166992187500000e-01
4.982759928703308105e+01,7.529764175415039062e+00,-2.298433631658554077e-01,6.174645900726317471e+00,4.196166992187500000e-01,-8.163452148437500000e-01,-3.128051757812500000e-01
4.983934974670410156e+01,7.515398979187012607e+00,-3.758896589279174805e-01,6.040570735931396484e+00,5.569458007812500000e-01,-1.068115234375000000e+00,-1.907348632812500000e-01
4.985394096374511719e+01,7.560888767242432529e+00,-3.758896589279174805e-01,6.040570735931396484e+00,5.645751953125000000e-01,-1.068115234375000000e+00,-1.907348632812500000e-01
4.986599159240722656e+01,7.843404769897460938e+00,-4.261679053306580145e-01,5.978321552276611328e+00,7.019042968750000000e-01,-1.068115234375000000e+00,-1.831054687500000000e-01
4.988128280639648438e+01,7.843404769897460938e+00,-3.639186620712279718e-01,6.260837554931641513e+00,7.019042968750000000e-01,4.730224609375000000e-01,-6.561279296875000000e-01
4.989607739448547363e+01,7.642291545867919922e+00,-4.141968786716461182e-01,5.956773757934570312e+00,6.561279296875000000e-01,3.051757812500000000e-02,-6.561279296875000000e-01
4.990844273567199707e+01,7.625532150268554688e+00,-4.141968786716461182e-01,5.956773757934570312e+00,4.425048828125000000e-01,3.051757812500000000e-02,-6.561279296875000000e-01
4.992406249046325684e+01,7.625532150268554688e+00,-4.501098990440369207e-01,5.956773757934570312e+00,6.561279296875000000e-01,-1.144409179687500000e-01,-6.942749023437500000e-01
4.993579339981079102e+01,7.448361396789550781e+00,-4.501098990440369207e-01,5.997475147247314453e+00,4.425048828125000000e-01,-2.517700195312500000e-01,-6.637573242187500000e-01
4.995050597190856934e+01,7.776367187500000000e+00,-3.615244626998900812e-01,6.248866558074951172e+00,4.272460937500000000e-01,-2.517700195312500000e-01,-6.637573242187500000e-01
4.996444392204284668e+01,7.630320549011230469e+00,-3.591302633285522461e-01,6.248866558074951172e+00,5.340576171875000000e-02,-2.517700195312500000e-01,-6.637573242187500000e-01
4.997795772552490234e+01,7.630320549011230469e+00,-3.615244626998900812e-01,6.129156112670897549e+00,4.272460937500000000e-01,-1.983642578125000000e-01,-2.288818359375000000e-02
4.999201345443725586e+01,7.615955352783202237e+00,-3.375824391841888428e-01,6.076483726501464844e+00,7.476806640625000000e-01,-1.983642578125000000e-01,-8.850097656250000000e-01
5.000390195846557617e+01,7.589619159698486328e+00,-2.585737705230712891e-01,6.076483726501464844e+00,7.476806640625000000e-01,-1.983642578125000000e-01,-2.288818359375000000e-02
5.001994514465332031e+01,7.589619159698486328e+00,-2.585737705230712891e-01,6.030993938446044922e+00,5.035400390625000000e-01,2.288818359375000000e-02,-8.850097656250000000e-01
5.003100156784057617e+01,7.666233539581298828e+00,-3.423708379268646240e-01,6.030993938446044922e+00,4.806518554687500000e-01,2.288818359375000000e-02,7.629394531250000000e-02
5.004584789276123047e+01,7.666233539581298828e+00,-3.423708379268646240e-01,5.942408561706542969e+00,4.806518554687500000e-01,-3.662109375000000000e-01,2.670288085937500000e-01
5.006269574165344238e+01,7.623137950897217685e+00,-3.160346150398254395e-01,6.074089527130127841e+00,4.806518554687500000e-01,-3.662109375000000000e-01,2.670288085937500000e-01
5.007357430458068848e+01,7.611166954040527344e+00,-2.537853717803955078e-01,6.320692539215087891e+00,-2.059936523437500000e-01,8.392333984375000000e-02,-4.119873046875000000e-01
5.008786797523498535e+01,7.623137950897217685e+00,-2.537853717803955078e-01,6.320692539215087891e+00,-2.059936523437500000e-01,8.392333984375000000e-02,-4.119873046875000000e-01
5.010256528854370117e+01,7.644685745239257812e+00,-3.184288144111632746e-01,6.133944511413574219e+00,3.662109375000000000e-01,8.392333984375000000e-02,3.128051757812500000e-01
5.011487221717834473e+01,7.644685745239257812e+00,-3.184288144111632746e-01,6.133944511413574219e+00,3.662109375000000000e-01,8.392333984375000000e-02,3.128051757812500000e-01
5.012668561935424805e+01,7.577648162841797763e+00,-2.633621692657471258e-01,6.110002517700195312e+00,2.288818359375000000e-02,8.392333984375000000e-02,3.128051757812500000e-01
5.014467072486877441e+01,7.577648162841797763e+00,-2.633621692657471258e-01,6.110002517700195312e+00,2.288818359375000000e-02,-5.340576171875000000e-02,-4.577636718750000000e-02
5.015604472160339355e+01,7.577648162841797763e+00,-3.734954595565795898e-01,6.014234542846679688e+00,4.577636718750000000e-02,-6.103515625000000000e-01,3.204345703125000000e-01
5.016916728019714355e+01,7.592013359069824219e+00,-3.950432837009429932e-01,6.014234542846679688e+00,2.746582031250000000e-01,-6.484985351562500000e-01,3.280639648437500000e-01
5.018673849105834961e+01,7.592013359069824219e+00,-3.950432837009429932e-01,6.062118530273437500e+00,1.220703125000000000e-01,-6.484985351562500000e-01,3.280639648437500000e-01
5.019782018661499023e+01,7.592013359069824219e+00,-3.950432837009429932e-01,6.062118530273437500e+00,1.220703125000000000e-01,-3.433227539062500000e-01,3.280639648437500000e-01
5.021107769012451172e+01,7.546523571014403409e+00,-3.974374830722808838e-01,5.971138954162597656e+00,6.866455078125000000e-02,-2.593994140625000000e-01,2.899169921875000000e-01
5.022545266151428223e+01,7.522581577301025391e+00,-4.453215003013610840e-01,5.942408561706542969e+00,6.866455078125000000e-02,-2.593994140625000000e-01,2.899169921875000000e-01
5.023851966857910156e+01,7.546523571014403409e+00,-4.453215003013610840e-01,5.942408561706542969e+00,6.866455078125000000e-02,-2.593994140625000000e-01,2.899169921875000000e-01
5.025062823295593262e+01,7.733271598815917969e+00,-2.466027736663818637e-01,6.344634532928467685e+00,-1.098632812500000000e+00,-2.365112304687500000e-01,-3.890991210937500000e-01
5.026754713058471680e+01,7.733271598815917969e+00,-2.466027736663818637e-01,6.402095317840576172e+00,-1.098632812500000000e+00,-4.501342773437500000e-01,-4.119873046875000000e-01
5.027990365028381348e+01,7.733271598815917969e+00,-3.567360341548920233e-01,6.402095317840576172e+00,1.106262207031250000e+00,-4.501342773437500000e-01,-4.119873046875000000e-01
5.029181265830993652e+01,7.766790390014647549e+00,-5.339069962501525879e-01,5.817910194396972656e+00,1.106262207031250000e+00,-4.501342773437500000e-01,-4.119873046875000000e-01
5.030964660644531250e+01,7.766790390014647549e+00,-5.339069962501525879e-01,5.817910194396972656e+00,-1.907348632812500000e-01,-7.629394531250000000e-02,-5.264282226562500000e-01
5.032046890258789062e+01,7.845798969268798828e+00,-4.022258818149567206e-01,5.781997203826903409e+00,-1.907348632812500000e-01,-7.629394531250000000e-02,-5.264282226562500000e-01
5.033459281921386719e+01,7.896077156066894531e+00,-4.022258818149567206e-01,5.781997203826903409e+00,-1.373291015625000000e-01,-7.629394531250000000e-02,-5.264282226562500000e-01
5.034569668769836426e+01,7.896077156066894531e+00,-4.022258818149567206e-01,5.781997203826903409e+00,-1.373291015625000000e-01,-5.493164062500000000e-01,-2.517700195312500000e-01
5.036104846000671387e+01,7.714117527008057529e+00,-2.035071402788162509e-01,6.234500885009766513e+00,-1.373291015625000000e-01,-5.493164062500000000e-01,-2.517700195312500000e-01
5.037639856338500977e+01,7.714117527008057529e+00,-2.035071402788162509e-01,6.234500885009766513e+00,-1.525878906250000000e-02,-5.493164062500000000e-01,-1.449584960937500000e-01
5.038795471191406250e+01,7.714117527008057529e+00,-2.849099934101104736e-01,6.234500885009766513e+00,1.449584960937500000e-01,3.204345703125000000e-01,-1.449584960937500000e-01
5.040285658836364746e+01,7.565677165985107422e+00,-3.232172131538391113e-01,6.040570735931396484e+00,1.449584960937500000e-01,3.204345703125000000e-01,-1.449584960937500000e-01
5.041464686393737793e+01,7.565677165985107422e+00,-3.232172131538391113e-01,6.040570735931396484e+00,4.272460937500000000e-01,1.983642578125000000e-01,1.831054687500000000e-01
5.042965650558471680e+01,7.565677165985107422e+00,-3.615244626998900812e-01,6.014234542846679688e+00,4.272460937500000000e-01,1.831054687500000000e-01,1.831054687500000000e-01
5.044259285926818848e+01,7.673416137695311612e+00,-4.070142805576325018e-01,6.014234542846679688e+00,4.272460937500000000e-01,1.831054687500000000e-01,-5.264282226562500000e-01
5.045666265487670898e+01,7.637503147125244141e+00,-3.615244626998900812e-01,6.138732910156250000e+00,2.059936523437500000e-01,-2.975463867187500000e-01,-5.264282226562500000e-01
5.047210359573364258e+01,7.637503147125244141e+00,-2.873041927814484198e-01,6.148309707641602451e+00,2.136230468750000000e-01,-2.975463867187500000e-01,-3.967285156250000000e-01
5.048435688018798828e+01,7.637503147125244141e+00,-2.873041927814484198e-01,6.148309707641602451e+00,2.059936523437500000e-01,-2.059936523437500000e-01,-3.967285156250000000e-01
5.049864363670349121e+01,7.611166954040527344e+00,-3.687070608139038086e-01,6.016628742218017578e+00,2.136230468750000000e-01,-2.059936523437500000e-01,-3.967285156250000000e-01
5.051062464714050293e+01,7.594407558441162109e+00,-3.687070608139038086e-01,6.016628742218017578e+00,9.155273437500000000e-02,-2.059936523437500000e-01,-1.373291015625000000e-01
5.052603030204772949e+01,7.594407558441162109e+00,-4.525041282176970880e-01,6.107608318328857422e+00,9.155273437500000000e-02,-2.593994140625000000e-01,-1.373291015625000000e-01
5.053902673721313477e+01,7.644685745239257812e+00,-4.070142805576325018e-01,6.107608318328857422e+00,9.155273437500000000e-02,-2.593994140625000000e-01,-1.373291015625000000e-01
5.055370426177978516e+01,7.644685745239257812e+00,-4.070142805576325018e-01,6.105214118957520419e+00,8.392333984375000000e-02,-2.593994140625000000e-01,-1.831054687500000000e-01
5.056903958320617676e+01,7.644685745239257812e+00,-3.998316824436187744e-01,6.066906929016112393e+00,3.356933593750000000e-01,-1.602172851562500000e-01,-1.831054687500000000e-01
5.058002352714538574e+01,7.687781333923339844e+00,-3.303998410701752264e-01,6.071695327758789062e+00,3.356933593750000000e-01,-1.602172851562500000e-01,-1.831054687500000000e-01
5.059507679939270020e+01,7.687781333923339844e+00,-2.513911724090576172e-01,6.062118530273437500e+00,3.356933593750000000e-01,-6.103515625000000000e-02,-4.882812500000000000e-01
5.060773396492004395e+01,7.644685745239257812e+00,-2.513911724090576172e-01,6.062118530273437500e+00,2.288818359375000000e-02,-6.103515625000000000e-02,-5.950927734375000000e-01
5.062204742431640625e+01,7.577648162841797763e+00,-3.471592366695404053e-01,6.062118530273437500e+00,2.288818359375000000e-02,-6.103515625000000000e-02,-5.950927734375000000e-01
5.063421773910522461e+01,7.584830760955809659e+00,-3.471592366695404053e-01,6.148309707641602451e+00,-1.831054687500000000e-01,2.670288085937500000e-01,-3.204345703125000000e-01
5.065139484405517578e+01,7.584830760955809659e+00,-3.471592366695404053e-01,6.186616897583007812e+00,3.280639648437500000e-01,2.670288085937500000e-01,-2.212524414062500000e-01
5.066224122047424316e+01,7.601590156555175781e+00,-2.489969730377196988e-01,6.148309707641602451e+00,3.280639648437500000e-01,2.670288085937500000e-01,-2.212524414062500000e-01
5.067645072937011719e+01,7.642291545867919922e+00,-3.088520169258117676e-01,6.189011096954346591e+00,3.280639648437500000e-01,4.501342773437500000e-01,-2.212524414062500000e-01
5.069351530075073242e+01,7.642291545867919922e+00,-3.088520169258117676e-01,6.124367713928222656e+00,2.212524414062500000e-01,-3.433227539062500000e-01,-5.340576171875000000e-02
5.070444464683532715e+01,7.642291545867919922e+00,-3.734954595565795898e-01,5.987898349761962891e+00,2.212524414062500000e-01,-3.433227539062500000e-01,-5.340576171875000000e-02
5.071872067451477051e+01,7.613561153411865234e+00,-3.854664564132689319e-01,5.987898349761962891e+00,2.212524414062500000e-01,-3.433227539062500000e-01,-5.340576171875000000e-02
