# elapsed time, f3_acc_x, f3_acc_y, f3_acc_z, f3_gyro_x, f3_gyro_y, f3_gyro_z
8.187548637390136719e+00,-2.638410329818725586e+00,-8.413224220275878906e+00,-5.444414615631104404e+00,-3.692626953125000000e+00,7.629394531250000000e-03,8.010864257812500000e-01
8.200896024703979492e+00,-2.626439332962036133e+00,-8.406042098999023438e+00,-5.434837818145751953e+00,-3.669738769531250000e+00,6.866455078125000000e-02,8.010864257812500000e-01
8.217288494110107422e+00,-2.626439332962036133e+00,-8.401253700256347656e+00,-5.413290023803710938e+00,-3.692626953125000000e+00,6.866455078125000000e-02,8.010864257812500000e-01
8.227625608444213867e+00,-2.691082715988159180e+00,-8.401253700256347656e+00,-5.434837818145751953e+00,-3.883361816406250000e+00,-2.593994140625000000e-01,5.416870117187500000e-01
8.242595195770263672e+00,-2.691082715988159180e+00,-8.420407295227050781e+00,-5.446808815002441406e+00,-3.883361816406250000e+00,-2.593994140625000000e-01,5.416870117187500000e-01
8.255738258361816406e+00,-2.647987127304077148e+00,-8.420407295227050781e+00,-5.463568210601806641e+00,-3.883361816406250000e+00,5.340576171875000000e-02,6.713867187500000000e-01
8.269529342651367188e+00,-2.647987127304077148e+00,-8.420407295227050781e+00,-5.463568210601806641e+00,-3.929138183593750000e+00,5.340576171875000000e-02,8.544921875000000000e-01
8.282600164413452148e+00,-2.650381326675415039e+00,-8.410830497741699219e+00,-5.463568210601806641e+00,-3.936767578125000000e+00,-8.392333984375000000e-02,7.553100585937500000e-01
8.297574281692504883e+00,-2.650381326675415039e+00,-8.451531410217285156e+00,-5.456385612487792969e+00,-3.929138183593750000e+00,-8.392333984375000000e-02,7.553100585937500000e-01
8.309645891189575195e+00,-2.643198728561401367e+00,-8.446743011474609375e+00,-5.456385612487792969e+00,-3.936767578125000000e+00,-8.392333984375000000e-02,7.553100585937500000e-01
8.324355602264404297e+00,-2.636016130447388139e+00,-8.446743011474609375e+00,-5.530605792999267578e+00,-3.913879394531250000e+00,-8.392333984375000000e-02,8.010864257812500000e-01
8.338399171829223633e+00,-2.636016130447388139e+00,-8.389282226562500000e+00,-5.530605792999267578e+00,-3.913879394531250000e+00,-1.373291015625000000e-01,8.773803710937500000e-01
8.350730419158935547e+00,-2.643198728561401367e+00,-8.360551834106445312e+00,-5.456385612487792969e+00,-3.890991210937500000e+00,-8.392333984375000000e-02,8.773803710937500000e-01
8.366038799285888672e+00,-2.645592927932739702e+00,-8.360551834106445312e+00,-5.456385612487792969e+00,-3.890991210937500000e+00,-2.517700195312500000e-01,5.111694335937500000e-01
8.380282402038574219e+00,-2.652775526046752930e+00,-8.358158111572265625e+00,-5.573701381683349609e+00,-3.890991210937500000e+00,1.525878906250000000e-02,5.111694335937500000e-01
8.393571376800537109e+00,-2.652775526046752930e+00,-8.358158111572265625e+00,-5.573701381683349609e+00,-3.761291503906250000e+00,9.155273437500000000e-02,6.103515625000000000e-01
8.404743432998657227e+00,-2.652775526046752930e+00,-8.372523307800292969e+00,-5.461174011230468750e+00,-3.761291503906250000e+00,9.155273437500000000e-02,6.103515625000000000e-01
8.422205448150634766e+00,-2.679111719131469727e+00,-8.441954612731933594e+00,-5.461174011230468750e+00,-3.967285156250000000e+00,6.866455078125000000e-02,6.103515625000000000e-01
8.432418823242187500e+00,-2.679111719131469727e+00,-8.372523307800292969e+00,-5.463568210601806641e+00,-3.967285156250000000e+00,-1.373291015625000000e-01,4.959106445312500000e-01
8.447267293930053711e+00,-2.664746522903442383e+00,-8.341398239135742188e+00,-5.463568210601806641e+00,-3.807067871093750000e+00,2.288818359375000000e-02,6.103515625000000000e-01
8.460505962371826172e+00,-2.616862297058105025e+00,-8.341398239135742188e+00,-5.463568210601806641e+00,-3.616333007812500000e+00,-1.525878906250000000e-01,8.468627929687500000e-01
8.473860502243041992e+00,-2.616862297058105025e+00,-8.382100105285644531e+00,-5.446808815002441406e+00,-3.608703613281250000e+00,-2.670288085937500000e-01,8.468627929687500000e-01
8.486434459686279297e+00,-2.647987127304077148e+00,-8.382100105285644531e+00,-5.482721805572509766e+00,-3.295898437500000000e+00,-2.670288085937500000e-01,7.629394531250000000e-01
8.503296375274658203e+00,-2.693476915359497070e+00,-8.427589416503906250e+00,-5.470750808715820312e+00,-2.998352050781250000e+00,-5.874633789062500000e-01,7.629394531250000000e-01
8.515960931777954102e+00,-2.693476915359497070e+00,-8.422801017761230469e+00,-5.470750808715820312e+00,-2.716064453125000000e+00,-3.280639648437500000e-01,1.502990722656250000e+00
8.527491331100463867e+00,-2.717418909072875977e+00,-8.422801017761230469e+00,-5.434837818145751953e+00,-2.296447753906250000e+00,-7.400512695312500000e-01,1.892089843750000000e+00
8.545292854309082031e+00,-2.633621931076049805e+00,-8.422801017761230469e+00,-5.370194435119628906e+00,-1.411437988281250000e+00,-3.280639648437500000e-01,1.892089843750000000e+00
8.556210517883300781e+00,-2.782062292098999023e+00,-8.154650688171386719e+00,-5.370194435119628906e+00,-9.994506835937500000e-01,-2.944946289062500000e+00,1.976013183593750000e+00
8.570182085037231445e+00,-2.633621931076049805e+00,-8.379705429077148438e+00,-5.386953830718994141e+00,-9.231567382812500000e-01,-2.944946289062500000e+00,1.976013183593750000e+00
8.587501049041748047e+00,-2.652775526046752930e+00,-8.355763435363769531e+00,-5.477933406829833984e+00,-9.231567382812500000e-01,-3.211975097656250000e+00,2.006530761718750000e+00
8.598590850830078125e+00,-2.652775526046752930e+00,-8.355763435363769531e+00,-5.477933406829833984e+00,-5.569458007812500000e-01,-3.211975097656250000e+00,2.006530761718750000e+00
8.611626148223876953e+00,-2.652775526046752930e+00,-8.293514251708984375e+00,-5.465962409973144531e+00,-3.433227539062500000e-01,-2.830505371093750000e+00,1.480102539062500000e+00
8.623814821243286133e+00,-2.624045133590698242e+00,-8.293514251708984375e+00,-5.465962409973144531e+00,-3.433227539062500000e-01,-1.319885253906250000e+00,1.480102539062500000e+00
8.639150619506835938e+00,-2.272097349166870117e+00,-8.403647422790527344e+00,-5.465962409973144531e+00,-1.640319824218750000e+00,-1.319885253906250000e+00,2.761840820312500000e+00
8.651612758636474609e+00,-2.272097349166870117e+00,-8.729259490966796875e+00,-5.949591159820556641e+00,-1.640319824218750000e+00,-5.798339843750000000e+00,2.761840820312500000e+00
8.665515899658203125e+00,-2.774879693984985352e+00,-8.676587104797363281e+00,-5.492298603057861328e+00,2.250671386718750000e+00,-5.798339843750000000e+00,-9.078979492187500000e-01
8.677515506744384766e+00,-2.774879693984985352e+00,-8.676587104797363281e+00,-5.492298603057861328e+00,2.464294433593750000e+00,-1.075744628906250000e+00,-9.078979492187500000e-01
8.692711353302001953e+00,-2.348711729049682617e+00,-8.544905662536621094e+00,-5.391742229461669922e+00,2.464294433593750000e+00,-1.907348632812500000e-01,-2.136230468750000000e-01
8.707982063293457031e+00,-2.348711729049682617e+00,-8.408435821533203125e+00,-5.240907669067382812e+00,8.697509765625000000e-01,-1.907348632812500000e-01,-2.136230468750000000e-01
8.719851016998291016e+00,-2.351105928421020508e+00,-8.544905662536621094e+00,-5.391742229461669922e+00,-2.456665039062500000e+00,9.307861328125000000e-01,-2.037048339843750000e+00
8.734754800796508789e+00,-3.093308448791503906e+00,-8.774748802185058594e+00,-5.935225963592529297e+00,-2.456665039062500000e+00,9.307861328125000000e-01,-3.463745117187500000e+00
8.746554136276245117e+00,-3.093308448791503906e+00,-8.774748802185058594e+00,-5.935225963592529297e+00,2.876281738281250000e+00,8.392333984375000000e-01,-3.463745117187500000e+00
8.761696815490722656e+00,-2.475604534149169922e+00,-8.705317497253417969e+00,-5.401319026947021484e+00,2.876281738281250000e+00,8.392333984375000000e-01,-3.829956054687500000e+00
8.773315668106079102e+00,-2.432508945465087891e+00,-8.317456245422363281e+00,-5.401319026947021484e+00,3.929138183593750000e+00,-6.027221679687500000e-01,-3.829956054687500000e+00
8.788546800613403320e+00,-2.432508945465087891e+00,-8.317456245422363281e+00,-5.401319026947021484e+00,3.379821777343750000e+00,-6.179809570312500000e-01,-1.556396484375000000e+00
8.801202774047851562e+00,-2.432508945465087891e+00,-8.255207061767578125e+00,-5.145139217376708984e+00,3.929138183593750000e+00,-1.564025878906250000e+00,-5.416870117187500000e-01
8.817282915115356445e+00,-2.566584110260009766e+00,-8.518569946289062500e+00,-5.082890033721923828e+00,4.348754882812500000e+00,-1.564025878906250000e+00,6.713867187500000000e-01
8.828075170516967773e+00,-2.628833532333374023e+00,-8.365340232849121094e+00,-5.145139217376708984e+00,4.348754882812500000e+00,-1.419067382812500000e+00,6.713867187500000000e-01
8.843478918075561523e+00,-2.628833532333374023e+00,-8.518569946289062500e+00,-5.504269599914550781e+00,5.439758300781250000e+00,-1.419067382812500000e+00,1.144409179687500000e-01
8.855228424072265625e+00,-2.375048160552978516e+00,-8.707711219787597656e+00,-5.504269599914550781e+00,2.258300781250000000e+00,-2.059936523437500000e-01,-2.990722656250000000e+00
8.869602441787719727e+00,-2.375048160552978516e+00,-8.707711219787597656e+00,-5.111620426177978516e+00,-1.045227050781250000e+00,2.120971679687500000e+00,-2.990722656250000000e+00
8.886213779449462891e+00,-2.719813108444213867e+00,-8.707711219787597656e+00,-5.111620426177978516e+00,-1.045227050781250000e+00,2.120971679687500000e+00,-2.143859863281250000e+00
8.896672248840332031e+00,-2.719813108444213867e+00,-8.755595207214355469e+00,-5.111620426177978516e+00,3.707885742187500000e+00,2.120971679687500000e+00,-2.143859863281250000e+00
8.911774396896362305e+00,-2.961627483367919922e+00,-8.755595207214355469e+00,-5.046977043151856357e+00,4.493713378906250000e+00,2.822875976562500000e+00,-3.334045410156250000e+00
8.924386978149414062e+00,-2.726995706558227539e+00,-8.106766700744628906e+00,-4.826710700988769531e+00,5.195617675781250000e+00,2.822875976562500000e+00,-4.455566406250000000e+00
8.939311504364013672e+00,-2.726995706558227539e+00,-8.106766700744628906e+00,-4.517858505249023438e+00,5.195617675781250000e+00,9.994506835937500000e-01,-4.455566406250000000e+00
8.950775146484375000e+00,-2.726995706558227539e+00,-8.221688270568847656e+00,-4.517858505249023438e+00,1.747131347656250000e+00,6.790161132812500000e-01,-2.059936523437500000e-01
8.968148708343505859e+00,-2.767697095870972124e+00,-8.444349288940429688e+00,-4.984727859497070312e+00,1.701354980468750000e+00,8.163452148437500000e-01,2.021789550781250000e+00
8.980568170547485352e+00,-2.798821687698364258e+00,-8.927977561950683594e+00,-4.984727859497070312e+00,1.701354980468750000e+00,7.781982421875000000e-01,2.021789550781250000e+00
8.993429183959960938e+00,-2.889801502227783203e+00,-8.927977561950683594e+00,-5.051765441894531250e+00,3.059387207031250000e+00,8.163452148437500000e-01,-1.907348632812500000e-01
9.006679058074951172e+00,-2.889801502227783203e+00,-8.700529098510742188e+00,-5.051765441894531250e+00,6.240844726562500000e+00,7.781982421875000000e-01,-1.625061035156250000e+00
9.020006418228149414e+00,-2.561795711517333984e+00,-8.556877136230468750e+00,-5.051765441894531250e+00,6.240844726562500000e+00,4.730224609375000000e-01,-1.625061035156250000e+00
9.035618066787719727e+00,-2.480392932891845703e+00,-8.494627952575683594e+00,-5.142745018005371094e+00,3.311157226562500000e+00,-6.256103515625000000e-01,-1.625061035156250000e+00
9.049316644668579102e+00,-2.272097349166870117e+00,-8.556877136230468750e+00,-4.900930881500244141e+00,3.311157226562500000e+00,-6.256103515625000000e-01,-1.441955566406250000e+00
9.060627460479736328e+00,-2.312798738479614258e+00,-8.693346023559570312e+00,-5.056553840637207031e+00,1.861572265625000000e+00,-6.256103515625000000e-01,-1.327514648437500000e+00
9.074100017547607422e+00,-2.312798738479614258e+00,-8.693346023559570312e+00,-4.944026470184326172e+00,-7.858276367187500000e-01,-1.701354980468750000e+00,-1.327514648437500000e+00
9.091328382492065430e+00,-2.621650934219360352e+00,-8.755595207214355469e+00,-5.056553840637207031e+00,-7.858276367187500000e-01,-8.926391601562500000e-01,-1.327514648437500000e+00
9.102164745330810547e+00,-2.664746522903442383e+00,-8.616731643676757812e+00,-5.207388401031494141e+00,1.525878906250000000e+00,-8.926391601562500000e-01,-2.899169921875000000e+00
9.116693258285522461e+00,-2.664746522903442383e+00,-8.760383605957031250e+00,-5.207388401031494141e+00,4.867553710937500000e+00,-8.926391601562500000e-01,-2.899169921875000000e+00
9.135881900787353516e+00,-2.583343505859375000e+00,-8.698134422302246094e+00,-5.056553840637207031e+00,5.020141601562500000e+00,7.781982421875000000e-01,-2.899169921875000000e+00
9.147769451141357422e+00,-2.583343505859375000e+00,-8.698134422302246094e+00,-4.546588897705078125e+00,5.020141601562500000e+00,2.120971679687500000e+00,-2.838134765625000000e+00
9.158593177795410156e+00,-2.583343505859375000e+00,-8.688557624816894531e+00,-4.546588897705078125e+00,9.689331054687500000e-01,2.120971679687500000e+00,-2.838134765625000000e+00
9.172445774078369141e+00,-2.595314502716064453e+00,-8.688557624816894531e+00,-4.707000255584716797e+00,9.689331054687500000e-01,-1.007080078125000000e+00,-1.907348632812500000e+00
9.186021566390991211e+00,-2.561795711517333984e+00,-8.789113998413085938e+00,-5.037400245666503906e+00,1.686096191406250000e+00,-1.007080078125000000e+00,-1.907348632812500000e+00
9.197066068649291992e+00,-2.736572504043579102e+00,-8.798690795898437500e+00,-5.037400245666503906e+00,5.805969238281250000e+00,-2.029418945312500000e+00,-2.510070800781250000e+00
9.214383840560913086e+00,-2.561795711517333984e+00,-8.798690795898437500e+00,-4.513070106506347656e+00,5.805969238281250000e+00,2.288818359375000000e-02,-3.829956054687500000e+00
9.224187374114990234e+00,-2.736572504043579102e+00,-8.712499618530273438e+00,-4.513070106506347656e+00,5.615234375000000000e+00,-3.860473632812500000e+00,-2.510070800781250000e+00
9.238778352737426758e+00,-2.659958124160766602e+00,-8.705317497253417969e+00,-4.709394454956054688e+00,4.455566406250000000e+00,-1.823425292968750000e+00,-4.577636718750000000e-01
9.254205703735351562e+00,-2.724601507186889648e+00,-8.508993148803710938e+00,-4.709394454956054688e+00,5.615234375000000000e+00,-1.823425292968750000e+00,-4.577636718750000000e-01
9.266119956970214844e+00,-2.659958124160766602e+00,-8.705317497253417969e+00,-4.587290287017822266e+00,4.455566406250000000e+00,-1.777648925781250000e+00,-2.143859863281250000e+00
9.280891180038452148e+00,-2.518700122833251953e+00,-8.803479194641113281e+00,-4.587290287017822266e+00,1.152038574218750000e+00,-1.480102539062500000e+00,-2.143859863281250000e+00
9.293741226196289062e+00,-2.518700122833251953e+00,-8.803479194641113281e+00,-4.829104900360107422e+00,1.152038574218750000e+00,-1.480102539062500000e+00,-4.425048828125000000e-01
9.308001995086669922e+00,-2.671929121017456055e+00,-8.803479194641113281e+00,-4.999093055725097656e+00,2.075195312500000000e+00,1.174926757812500000e+00,3.356933593750000000e-01
9.320692300796508789e+00,-2.671929121017456055e+00,-9.006986618041992188e+00,-4.999093055725097656e+00,3.334045410156250000e+00,-3.227233886718750000e+00,3.356933593750000000e-01
9.334579706192016602e+00,-2.640804529190063477e+00,-9.040505409240724433e+00,-4.704606056213378906e+00,4.066467285156250000e+00,-1.213073730468750000e+00,-4.730224609375000000e-01
9.346529245376586914e+00,-2.475604534149169922e+00,-9.006986618041992188e+00,-4.683058261871337891e+00,5.424499511718750000e+00,-2.006530761718750000e+00,-1.358032226562500000e+00
9.361765146255493164e+00,-2.475604534149169922e+00,-8.999804496765136719e+00,-4.704606056213378906e+00,4.066467285156250000e+00,-1.213073730468750000e+00,-1.358032226562500000e+00
9.376808166503906250e+00,-2.492363929748535156e+00,-8.925583839416503906e+00,-4.683058261871337891e+00,5.920410156250000000e+00,-2.006530761718750000e+00,6.866455078125000000e-02
9.388748168945312500e+00,-2.492363929748535156e+00,-8.889670372009277344e+00,-4.501099109649658203e+00,3.082275390625000000e+00,1.754760742187500000e+00,6.866455078125000000e-02
9.403950929641723633e+00,-2.616862297058105025e+00,-8.714894294738769531e+00,-4.501099109649658203e+00,3.601074218750000000e+00,-3.524780273437500000e+00,5.187988281250000000e-01
9.415990591049194336e+00,-2.398990154266357422e+00,-8.889670372009277344e+00,-4.501099109649658203e+00,3.601074218750000000e+00,8.392333984375000000e-02,5.187988281250000000e-01
9.430941104888916016e+00,-2.592920303344726562e+00,-8.978256225585937500e+00,-4.716577053070068359e+00,3.601074218750000000e+00,8.392333984375000000e-02,2.532958984375000000e+00
9.441769361495971680e+00,-2.592920303344726562e+00,-9.100360870361328125e+00,-4.580107688903808594e+00,1.388549804687500000e+00,8.392333984375000000e-02,2.532958984375000000e+00
9.458322763442993164e+00,-3.035847663879394531e+00,-9.100360870361328125e+00,-4.606443881988525391e+00,1.388549804687500000e+00,2.372741699218750000e+00,2.029418945312500000e+00
9.470803737640380859e+00,-3.134010076522827148e+00,-9.095572471618652344e+00,-4.580107688903808594e+00,4.776000976562500000e+00,-1.197814941406250000e+00,-4.508972167968750000e+00
9.485152959823608398e+00,-3.134010076522827148e+00,-9.006986618041992188e+00,-4.137180328369140625e+00,4.776000976562500000e+00,-1.197814941406250000e+00,-4.508972167968750000e+00
9.500242948532104492e+00,-2.154781579971313032e+00,-8.781931877136230469e+00,-4.137180328369140625e+00,1.701354980468750000e+00,-2.357482910156250000e+00,1.815795898437500000e+00
9.512228727340698242e+00,-2.154781579971313032e+00,-8.640673637390136719e+00,-4.656722068786621094e+00,-1.464843750000000000e+00,-2.357482910156250000e+00,1.815795898437500000e+00
9.526512384414672852e+00,-2.647987127304077148e+00,-8.781931877136230469e+00,-4.855441093444824219e+00,-3.326416015625000000e+00,-2.357482910156250000e+00,6.828308105468750000e+00
9.539316415786743164e+00,-3.016694068908691406e+00,-8.470685005187988281e+00,-5.137956619262695312e+00,-1.464843750000000000e+00,-1.393890380859375000e+01,-9.689331054687500000e-01
9.554944753646850586e+00,-3.016694068908691406e+00,-9.052476882934570312e+00,-5.137956619262695312e+00,-4.455566406250000000e+00,-1.393890380859375000e+01,-3.059387207031250000e+00
9.564905643463134766e+00,-2.161964178085327148e+00,-8.470685005187988281e+00,-4.635174274444580078e+00,1.144409179687500000e-01,6.027221679687500000e-01,-6.462097167968750000e+00
9.581659078598022461e+00,-1.972822189331054910e+00,-9.059659004211425781e+00,-4.503493309020996094e+00,-8.346557617187500000e+00,6.027221679687500000e-01,-6.462097167968750000e+00
9.597502708435058594e+00,-2.161964178085327148e+00,-9.500192642211914062e+00,-4.635174274444580078e+00,1.144409179687500000e-01,-4.547119140625000000e+00,3.997802734375000000e+00
9.607682704925537109e+00,-2.750937700271606445e+00,-9.643844604492187500e+00,-4.503493309020996094e+00,3.173828125000000000e+00,-4.547119140625000000e+00,3.997802734375000000e+00
9.623343706130981445e+00,-2.750937700271606445e+00,-9.643844604492187500e+00,-4.898536682128906250e+00,3.173828125000000000e+00,3.822326660156250000e+00,-1.731872558593750000e+00
9.637438774108886719e+00,-2.329558134078979492e+00,-9.217676162719728339e+00,-3.603273391723632812e+00,1.594543457031250000e+00,1.844787597656250000e+01,-4.760742187500000000e+00
9.650730848312377930e+00,-1.398213744163513184e+00,-8.444349288940429688e+00,-1.252167463302612305e+00,-1.149749755859375000e+01,3.242492675781250000e+01,-4.425048828125000000e+00
9.661080598831176758e+00,-1.398213744163513184e+00,-8.444349288940429688e+00,-1.252167463302612305e+00,-1.149749755859375000e+01,3.242492675781250000e+01,-4.425048828125000000e+00
9.679995775222778320e+00,-3.184288263320922852e+00,-8.140285491943359375e+00,-4.120420932769775391e+00,-3.265380859375000000e+00,2.147674560546875000e+01,-4.112243652343750000e+00
9.690657377243041992e+00,-3.581725597381591797e+00,-8.140285491943359375e+00,-5.197811603546142578e+00,-3.265380859375000000e+00,-1.148986816406250000e+01,6.713867187500000000e-01
9.703946828842163086e+00,-3.581725597381591797e+00,-9.476249694824220526e+00,-5.197811603546142578e+00,-9.094238281250000000e+00,-1.148986816406250000e+01,6.713867187500000000e-01
9.721474170684814453e+00,-2.360682725906372070e+00,-9.691728591918943536e+00,-3.849876165390015093e+00,-1.145172119140625000e+01,-2.838134765625000000e+00,6.713867187500000000e-01
9.731895446777343750e+00,-2.360682725906372070e+00,-9.691728591918943536e+00,-3.263296842575072798e+00,-2.394104003906250000e+01,-2.838134765625000000e+00,-7.026672363281250000e+00
9.746653318405151367e+00,-2.360682725906372070e+00,-9.354146003723144531e+00,-1.000776290893554910e+00,-2.751922607421875000e+01,-2.838134765625000000e+00,-7.110595703125000000e+00
9.760432481765747070e+00,-3.047818660736083984e+00,-9.296685218811035156e+00,-3.263296842575072798e+00,-2.394104003906250000e+01,-2.377319335937500000e+01,-7.141113281250000000e+00
9.772374391555786133e+00,-1.551442623138427512e+00,-8.947131156921386719e+00,-5.159504413604736328e+00,2.235412597656250000e+00,-2.542114257812500000e+01,-7.141113281250000000e+00
9.785533905029296875e+00,-1.651999115943908691e+00,-8.755595207214355469e+00,-5.159504413604736328e+00,2.235412597656250000e+00,-2.542114257812500000e+01,3.814697265625000000e+00
9.801813364028930664e+00,-1.651999115943908691e+00,-8.947131156921386719e+00,-5.147533416748046875e+00,3.868103027343750000e+00,5.432128906250000000e+00,3.814697265625000000e+00
9.813786745071411133e+00,-1.661575913429260476e+00,-9.064447402954101562e+00,-3.766079187393188921e+00,3.868103027343750000e+00,5.432128906250000000e+00,1.800537109375000000e+00
9.826232910156250000e+00,-2.152387380599976030e+00,-9.138668060302734375e+00,-3.766079187393188921e+00,3.868103027343750000e+00,5.432128906250000000e+00,1.800537109375000000e+00
9.844453573226928711e+00,-2.152387380599976030e+00,-9.074024200439451349e+00,-3.766079187393188921e+00,-6.408691406250000000e-01,4.028320312500000000e+00,1.800537109375000000e+00
9.855097770690917969e+00,-2.312798738479614258e+00,-9.138668060302734375e+00,-5.303156852722167969e+00,-6.408691406250000000e-01,-4.226684570312500000e+00,1.274108886718750000e+00
9.868280410766601562e+00,-2.348711729049682617e+00,-9.241618156433103692e+00,-5.726930141448974609e+00,5.050659179687500000e+00,-4.226684570312500000e+00,-6.866455078125000000e-01
9.881658077239990234e+00,-2.722207307815552202e+00,-9.241618156433103692e+00,-5.726930141448974609e+00,5.050659179687500000e+00,-1.502990722656250000e+00,7.705688476562500000e-01
9.895835161209106445e+00,-2.372653961181640625e+00,-9.579200744628906250e+00,-3.098096847534180132e+00,2.700805664062500000e+00,4.554748535156250000e+00,-6.866455078125000000e-01
9.911140918731689453e+00,-2.722207307815552202e+00,-9.181763648986816406e+00,-3.098096847534180132e+00,2.700805664062500000e+00,4.554748535156250000e+00,1.449584960937500000e-01
9.923285961151123047e+00,-2.372653961181640625e+00,-9.421183586120603692e+00,-3.098096847534180132e+00,-5.416870117187500000e-01,4.554748535156250000e+00,-2.388000488281250000e+00
9.938046455383300781e+00,-2.375048160552978516e+00,-8.769960403442382812e+00,-3.991134166717528853e+00,-6.309509277343750000e+00,-8.758544921875000000e+00,1.449584960937500000e-01
9.949963092803955078e+00,-2.375048160552978516e+00,-8.813055992126464844e+00,-2.949656486511230469e+00,-6.309509277343750000e+00,6.332397460937500000e+00,-4.653930664062500000e-01
9.965302228927612305e+00,-2.719813108444213867e+00,-8.813055992126464844e+00,-3.967192173004150391e+00,-4.875183105468750000e+00,-5.065917968750000000e+00,1.014709472656250000e+00
9.977426290512084961e+00,-2.719813108444213867e+00,-9.014169692993164062e+00,-3.967192173004150391e+00,6.561279296875000000e-01,-6.637573242187500000e-01,-1.907348632812500000e-01
9.991008520126342773e+00,-2.964021682739257812e+00,-9.014169692993164062e+00,-3.991134166717528853e+00,1.815795898437500000e+00,-4.447937011718750000e+00,1.014709472656250000e+00
1.000707936286926270e+01,-1.663970112800597922e+00,-8.714894294738769531e+00,-4.118026733398437500e+00,6.561279296875000000e-01,-3.768920898437500000e+00,-1.907348632812500000e-01
1.001915860176086426e+01,-2.442085742950439453e+00,-8.714894294738769531e+00,-4.118026733398437500e+00,-1.274108886718750000e+00,-3.768920898437500000e+00,1.571655273437500000e+00
1.003413748741149902e+01,-1.956062793731689231e+00,-8.942342758178710938e+00,-4.118026733398437500e+00,-4.455566406250000000e+00,2.059936523437500000e+00,1.571655273437500000e+00
1.004576921463012695e+01,-2.336740732192993164e+00,-8.942342758178710938e+00,-4.527435302734375000e+00,-5.630493164062500000e+00,2.059936523437500000e+00,1.846313476562500000e+00
1.006117415428161621e+01,-2.279279947280883789e+00,-8.942342758178710938e+00,-4.527435302734375000e+00,-5.630493164062500000e+00,2.059936523437500000e+00,2.182006835937500000e+00
1.007314562797546387e+01,-2.336740732192993164e+00,-8.908823966979980469e+00,-4.527435302734375000e+00,-1.419067382812500000e+00,-3.814697265625000000e+00,2.182006835937500000e+00
1.008816599845886230e+01,-2.279279947280883789e+00,-8.626308441162109375e+00,-4.259284973144531250e+00,-1.419067382812500000e+00,-1.647949218750000000e+00,2.182006835937500000e+00
1.010373687744140625e+01,-2.025494575500488281e+00,-8.626308441162109375e+00,-4.259284973144531250e+00,-3.570556640625000000e+00,-1.647949218750000000e+00,-8.392333984375000000e-02
1.011459350585937500e+01,-2.025494575500488281e+00,-8.626308441162109375e+00,-4.259284973144531250e+00,-3.570556640625000000e+00,-1.647949218750000000e+00,3.242492675781250000e+00
1.013078737258911133e+01,-2.171540975570678711e+00,-9.346962928771972656e+00,-4.515464305877685547e+00,-3.570556640625000000e+00,4.783630371093750000e+00,1.518249511718750000e+00
1.014216136932373047e+01,-2.171540975570678711e+00,-9.550470352172851562e+00,-4.692635059356689453e+00,-2.738952636718750000e+00,-2.861022949218750000e+00,4.119873046875000000e+00
1.015674376487731934e+01,-3.040636062622070312e+00,-9.550470352172851562e+00,-4.692635059356689453e+00,-4.646301269531250000e+00,0.000000000000000000e+00,1.518249511718750000e+00
1.016854143142700195e+01,-2.978386878967285156e+00,-9.844957351684570312e+00,-5.157110214233398438e+00,-4.646301269531250000e+00,0.000000000000000000e+00,4.119873046875000000e+00
1.018459558486938477e+01,-2.978386878967285156e+00,-8.492233276367187500e+00,-4.041412353515625000e+00,-4.646301269531250000e+00,0.000000000000000000e+00,-2.616882324218750000e+00
1.019620251655578613e+01,-2.602497100830078125e+00,-9.011775016784667969e+00,-4.041412353515625000e+00,-8.544921875000000000e+00,-8.392333984375000000e-02,5.279541015625000000e+00
1.021159720420837402e+01,-2.602497100830078125e+00,-9.011775016784667969e+00,-4.041412353515625000e+00,-2.799987792968750000e+00,-8.850097656250000000e-01,-1.800537109375000000e+00
1.022759938240051270e+01,-2.602497100830078125e+00,-9.011775016784667969e+00,-3.916913986206055132e+00,-8.850097656250000000e+00,-8.850097656250000000e-01,-1.800537109375000000e+00
1.023794388771057129e+01,-2.566584110260009766e+00,-9.246406555175779474e+00,-3.916913986206055132e+00,-7.911682128906250000e+00,1.464843750000000000e+00,-1.800537109375000000e+00
1.025324678421020508e+01,-2.552218914031982422e+00,-9.246406555175779474e+00,-3.916913986206055132e+00,-7.911682128906250000e+00,2.639770507812500000e+00,1.434326171875000000e+00
1.026735615730285645e+01,-2.566584110260009766e+00,-9.246406555175779474e+00,-3.888183593750000000e+00,-7.286071777343750000e+00,2.639770507812500000e+00,1.434326171875000000e+00
1.027965879440307617e+01,-2.552218914031982422e+00,-9.181763648986816406e+00,-4.903325080871582031e+00,-7.286071777343750000e+00,-3.524780273437500000e+00,1.434326171875000000e+00
1.029163241386413574e+01,-3.311180830001831055e+00,-8.425195693969726562e+00,-4.654327869415283203e+00,-2.029418945312500000e+00,-4.570007324218750000e+00,8.666992187500000000e+00
1.030918717384338379e+01,-9.385270476341247559e-01,-8.425195693969726562e+00,-4.654327869415283203e+00,-1.398468017578125000e+01,-3.524780273437500000e+00,8.666992187500000000e+00
1.032048916816711426e+01,-2.173935174942016602e+00,-8.425195693969726562e+00,-4.654327869415283203e+00,-2.898406982421875000e+01,-4.592895507812500000e+00,1.061248779296875000e+01
1.033358860015869141e+01,-8.547300100326538086e-01,-8.880093574523925781e+00,-3.483563423156738281e+00,-2.898406982421875000e+01,9.948730468750000000e+00,1.548004150390625000e+01
1.034859704971313477e+01,-2.173935174942016602e+00,-9.397241592407228339e+00,-5.633556365966796875e+00,-2.898406982421875000e+01,9.948730468750000000e+00,1.548004150390625000e+01
1.036096382141113281e+01,-8.547300100326538086e-01,-1.047223758697509766e+01,-1.961330032348632812e+01,-1.940155029296875000e+01,9.948730468750000000e+00,3.070068359375000000e+01
1.037450909614562988e+01,1.340752959251403809e+00,-1.047223758697509766e+01,-1.961330032348632812e+01,7.247924804687500000e+00,1.024551391601562358e+02,-1.510009765625000000e+02
1.038981175422668457e+01,1.340752959251403809e+00,-6.423643112182617188e+00,-1.750161409378051758e+00,7.247924804687500000e+00,-1.142883300781250000e+01,5.157470703125000000e+01
1.040257167816162109e+01,-3.804386377334594282e+00,-6.423643112182617188e+00,-1.750161409378051758e+00,-9.979248046875000000e+00,-1.142883300781250000e+01,2.066040039062500000e+01
1.041584920883178711e+01,-5.011064052581787109e+00,-1.004128170013427557e+01,-5.497087001800537109e+00,-9.979248046875000000e+00,-1.142883300781250000e+01,2.066040039062500000e+01
1.043247842788696289e+01,-5.011064052581787109e+00,-1.004128170013427557e+01,-5.497087001800537109e+00,-1.457214355468750000e+00,-3.013610839843750000e+00,-5.500793457031250000e+00
1.044305467605590820e+01,-4.572925269603729248e-01,-9.866504669189451349e+00,-5.475539207458496094e+00,-1.457214355468750000e+00,9.231567382812500000e-01,-5.500793457031250000e+00
1.045782589912414551e+01,-4.572925269603729248e-01,-9.866504669189451349e+00,-5.442020416259765625e+00,-3.219604492187500000e+00,-2.288818359375000000e-01,1.211547851562500000e+01
1.047402644157409668e+01,-4.469974517822265625e+00,-9.866504669189451349e+00,-5.442020416259765625e+00,-3.219604492187500000e+00,-2.288818359375000000e-01,1.211547851562500000e+01
1.048504567146301270e+01,-4.469974517822265625e+00,-8.463502883911132812e+00,-4.829104900360107422e+00,-3.219604492187500000e+00,-8.392333984375000000e-01,-4.241943359375000000e+00
1.049899482727050781e+01,-1.345541357994079590e+00,-8.463502883911132812e+00,-4.829104900360107422e+00,-7.041931152343750000e+00,-8.392333984375000000e-01,-4.241943359375000000e+00
1.051074361801147461e+01,-1.345541357994079590e+00,-8.288725852966308594e+00,-4.022258758544921875e+00,-7.041931152343750000e+00,-3.738403320312500000e-01,6.454467773437500000e+00
1.052631282806396484e+01,-2.497152328491210938e+00,-8.288725852966308594e+00,-4.022258758544921875e+00,-7.041931152343750000e+00,2.708435058593750000e+00,6.454467773437500000e+00
1.053759288787841797e+01,-2.643198728561401367e+00,-8.288725852966308594e+00,-4.022258758544921875e+00,-3.021240234375000000e+00,2.708435058593750000e+00,-2.677917480468750000e+00
1.055309796333312988e+01,-2.643198728561401367e+00,-9.167398452758787286e+00,-4.987122058868408203e+00,-3.021240234375000000e+00,4.577636718750000000e-02,-2.677917480468750000e+00
1.056814336776733398e+01,-2.523488521575928178e+00,-9.167398452758787286e+00,-4.987122058868408203e+00,-3.021240234375000000e+00,4.577636718750000000e-02,-3.890991210937500000e-01
1.057994055747985840e+01,-2.523488521575928178e+00,-8.626308441162109375e+00,-4.778826713562011719e+00,-3.082275390625000000e+00,-1.274108886718750000e+00,1.716613769531250000e+00
1.059491324424743652e+01,-3.232172250747680664e+00,-8.626308441162109375e+00,-4.778826713562011719e+00,-3.990173339843750000e+00,-1.274108886718750000e+00,1.716613769531250000e+00
1.060654735565185547e+01,-3.232172250747680664e+00,-8.916007041931152344e+00,-4.663904666900634766e+00,-3.990173339843750000e+00,-1.274108886718750000e+00,1.121520996093750000e+00
1.062103915214538574e+01,-2.410961151123046875e+00,-8.916007041931152344e+00,-4.625597476959228516e+00,-3.990173339843750000e+00,4.577636718750000000e-02,1.121520996093750000e+00
1.063429570198059082e+01,-2.410961151123046875e+00,-8.916007041931152344e+00,-4.606443881988525391e+00,-3.959655761718750000e+00,2.151489257812500000e+00,2.349853515625000000e+00
1.064982295036315918e+01,-2.473210334777832031e+00,-8.880093574523925781e+00,-4.472368717193604404e+00,-5.638122558593750000e+00,2.151489257812500000e+00,2.349853515625000000e+00
1.066890597343444824e+01,-2.473210334777832031e+00,-8.880093574523925781e+00,-4.472368717193604404e+00,-1.617431640625000000e+00,1.434326171875000000e+00,-3.738403320312500000e-01
1.067962527275085449e+01,-2.473210334777832031e+00,-8.880093574523925781e+00,-4.429273128509521484e+00,-5.638122558593750000e+00,-8.697509765625000000e-01,-3.738403320312500000e-01
1.069105958938598633e+01,-2.779668092727661133e+00,-9.315838813781738281e+00,-5.209782600402832031e+00,-5.706787109375000000e+00,-1.716613769531250000e+00,4.005432128906250000e+00
1.070260930061340332e+01,-2.779668092727661133e+00,-8.494627952575683594e+00,-4.091690540313720703e+00,-5.706787109375000000e+00,-1.716613769531250000e+00,4.005432128906250000e+00
1.071901869773864746e+01,-2.377442359924316406e+00,-8.494627952575683594e+00,-4.091690540313720703e+00,-6.546020507812500000e+00,1.754760742187500000e+00,-2.433776855468750000e+00
1.073090720176696777e+01,-2.188300371170043945e+00,-8.494627952575683594e+00,-4.091690540313720703e+00,-2.830505371093750000e+00,1.754760742187500000e+00,-2.433776855468750000e+00
1.074538040161132812e+01,-2.188300371170043945e+00,-8.022970199584960938e+00,-4.187458515167236328e+00,-8.850097656250000000e-01,-2.899169921875000000e-01,1.945495605468750000e+00
1.075973534584045410e+01,-2.882618904113769087e+00,-8.367734909057617188e+00,-4.316745758056640625e+00,-8.850097656250000000e-01,-2.899169921875000000e-01,1.945495605468750000e+00
1.077248287200927734e+01,-2.882618904113769087e+00,-8.367734909057617188e+00,-4.316745758056640625e+00,-2.059936523437500000e+00,-4.959106445312500000e-01,7.629394531250000000e-01
1.078688597679138184e+01,-2.176329374313354492e+00,-8.444349288940429688e+00,-4.316745758056640625e+00,-2.059936523437500000e+00,-1.068115234375000000e-01,7.629394531250000000e-01
1.079870057106018066e+01,-2.176329374313354492e+00,-9.184157371520996094e+00,-5.324704647064208984e+00,-2.059936523437500000e+00,-4.959106445312500000e-01,1.213073730468750000e+00
1.081675934791564941e+01,-3.004723072052001953e+00,-8.578424453735351562e+00,-4.620809078216552734e+00,-3.021240234375000000e+00,-1.457214355468750000e+00,1.213073730468750000e+00
1.082670331001281738e+01,-3.004723072052001953e+00,-8.578424453735351562e+00,-4.651933670043945312e+00,-4.173278808593750000e+00,-1.457214355468750000e+00,-8.392333984375000000e-02
1.084102487564086914e+01,-2.006340980529785156e+00,-8.578424453735351562e+00,-4.651933670043945312e+00,-5.401611328125000000e+00,-4.119873046875000000e-01,-8.392333984375000000e-02
1.085928916931152344e+01,-2.006340980529785156e+00,-8.446743011474609375e+00,-4.651933670043945312e+00,-5.401611328125000000e+00,3.280639648437500000e-01,3.684997558593750000e+00
1.086940121650695801e+01,-2.731784105300903764e+00,-9.157821655273437500e+00,-4.692635059356689453e+00,-4.890441894531250000e+00,4.043579101562500000e-01,3.684997558593750000e+00
1.088304138183593750e+01,-3.174711465835571733e+00,-9.279925346374511719e+00,-4.692635059356689453e+00,-3.334045410156250000e+00,4.043579101562500000e-01,-3.204345703125000000e-01
1.089759755134582520e+01,-3.174711465835571733e+00,-9.279925346374511719e+00,-4.790797710418701172e+00,-3.334045410156250000e+00,-1.098632812500000000e+00,-3.204345703125000000e-01
1.090920782089233398e+01,-2.798821687698364258e+00,-8.580819129943847656e+00,-4.790797710418701172e+00,-3.936767578125000000e+00,-1.098632812500000000e+00,9.689331054687500000e-01
1.092439675331115723e+01,-2.619256734848022461e+00,-8.580819129943847656e+00,-4.790797710418701172e+00,-3.936767578125000000e+00,-1.525878906250000000e-02,9.689331054687500000e-01
1.093900847434997559e+01,-2.449268341064453125e+00,-8.559270858764648438e+00,-4.728548049926757812e+00,-3.929138183593750000e+00,-1.525878906250000000e-02,-3.814697265625000000e-02
1.095205497741699219e+01,-2.449268341064453125e+00,-8.798690795898437500e+00,-4.728548049926757812e+00,-3.929138183593750000e+00,3.356933593750000000e-01,-3.814697265625000000e-02
1.096327209472656250e+01,-2.513911724090576172e+00,-8.813055992126464844e+00,-4.728548049926757812e+00,-3.929138183593750000e+00,-2.593994140625000000e-01,2.128601074218750000e+00
1.098149371147155762e+01,-2.700659513473510742e+00,-9.330204010009765625e+00,-4.881777286529541016e+00,-4.653930664062500000e+00,-8.239746093750000000e-01,2.128601074218750000e+00
1.099200415611267090e+01,-2.700659513473510742e+00,-9.330204010009765625e+00,-4.881777286529541016e+00,-2.479553222656250000e+00,-8.239746093750000000e-01,1.541137695312500000e+00
1.100582599639892578e+01,-2.427720546722412109e+00,-8.935160636901855469e+00,-4.673481464385986328e+00,-2.693176269531250000e+00,-4.043579101562500000e-01,1.541137695312500000e+00
1.102351570129394531e+01,-2.427720546722412109e+00,-8.750806808471679688e+00,-4.584896087646484375e+00,-2.693176269531250000e+00,-2.670288085937500000e-01,1.541137695312500000e+00
1.103413271903991699e+01,-2.451662540435791016e+00,-8.528146743774414062e+00,-4.395754337310791016e+00,-3.700256347656250000e+00,-4.043579101562500000e-01,-9.155273437500000000e-01
1.104772043228149414e+01,-2.451662540435791016e+00,-8.528146743774414062e+00,-4.395754337310791016e+00,-3.700256347656250000e+00,-1.098632812500000000e+00,-9.155273437500000000e-01
1.106193709373474121e+01,-2.451662540435791016e+00,-8.827421188354492188e+00,-4.821922302246093750e+00,-3.242492675781250000e+00,-1.098632812500000000e+00,2.037048339843750000e+00
1.107498216629028320e+01,-2.705447912216186523e+00,-8.978256225585937500e+00,-4.951209068298339844e+00,-3.242492675781250000e+00,-1.098632812500000000e+00,2.807617187500000000e+00
1.108788824081420898e+01,-2.705447912216186523e+00,-8.978256225585937500e+00,-4.951209068298339844e+00,-4.928588867187500000e+00,-2.593994140625000000e-01,2.807617187500000000e+00
1.110203886032104492e+01,-2.549824714660644531e+00,-8.918400764465332031e+00,-4.762067317962647373e+00,-4.928588867187500000e+00,1.289367675781250000e+00,8.850097656250000000e-01
1.111697363853454590e+01,-2.549824714660644531e+00,-8.918400764465332031e+00,-4.639962673187255859e+00,-3.944396972656250000e+00,1.289367675781250000e+00,8.850097656250000000e-01
1.112895655632019043e+01,-2.626439332962036133e+00,-8.918400764465332031e+00,-4.639962673187255859e+00,-3.944396972656250000e+00,6.408691406250000000e-01,8.850097656250000000e-01
1.114363002777099609e+01,-2.712630510330200195e+00,-8.901641845703125000e+00,-4.639962673187255859e+00,-4.150390625000000000e+00,-5.493164062500000000e-01,-8.773803710937500000e-01
1.115551972389221191e+01,-2.712630510330200195e+00,-8.901641845703125000e+00,-4.778826713562011719e+00,-4.150390625000000000e+00,-5.874633789062500000e-01,-8.773803710937500000e-01
1.116994404792785645e+01,-2.712630510330200195e+00,-8.901641845703125000e+00,-4.778826713562011719e+00,-3.829956054687500000e+00,-5.874633789062500000e-01,0.000000000000000000e+00
1.118661618232727051e+01,-2.796427488327026367e+00,-8.877699851989746094e+00,-4.702211856842041016e+00,-3.829956054687500000e+00,-1.602172851562500000e-01,1.258850097656250000e+00
