# elapsed time, f1_acc_x, f1_acc_y, f1_acc_z, f1_gyro_x, f1_gyro_y, f1_gyro_z
1.078348135948181152e+01,3.562572002410888672e+00,-8.750806808471679688e+00,-4.714182853698730469e+00,-3.639221191406250000e+00,-1.831054687500000000e-01,7.705688476562500000e-01
1.079824209213256836e+01,3.567360401153564453e+00,-8.738836288452148438e+00,-4.673481464385986328e+00,-3.608703613281250000e+00,-1.220703125000000000e-01,6.942749023437500000e-01
1.081336212158203125e+01,3.567360401153564453e+00,-8.755595207214355469e+00,-4.673481464385986328e+00,-3.669738769531250000e+00,-1.220703125000000000e-01,5.569458007812500000e-01
1.082501816749572754e+01,3.538630008697509766e+00,-8.719682693481445312e+00,-4.673481464385986328e+00,-3.486633300781250000e+00,-6.561279296875000000e-01,5.569458007812500000e-01
1.084008431434631348e+01,3.526659011840820312e+00,-8.736441612243652344e+00,-4.690240859985351562e+00,-3.570556640625000000e+00,-6.561279296875000000e-01,8.316040039062500000e-01
1.085193419456481934e+01,3.524264812469482422e+00,-8.736441612243652344e+00,-4.690240859985351562e+00,-3.570556640625000000e+00,1.525878906250000000e-02,8.316040039062500000e-01
1.086715364456176758e+01,3.509899616241455078e+00,-8.753201484680175781e+00,-4.685452461242675781e+00,-3.570556640625000000e+00,7.629394531250000000e-02,7.247924804687500000e-01
1.088232874870300293e+01,3.524264812469482422e+00,-8.757989883422851562e+00,-4.675875663757324219e+00,-3.845214843750000000e+00,7.629394531250000000e-02,5.493164062500000000e-01
1.089411401748657227e+01,3.509899616241455078e+00,-8.760383605957031250e+00,-4.587290287017822266e+00,-3.425598144531250000e+00,-1.983642578125000000e-01,7.095336914062500000e-01
1.090896081924438477e+01,3.502717018127441406e+00,-8.760383605957031250e+00,-4.587290287017822266e+00,-3.540039062500000000e+00,-1.983642578125000000e-01,6.942749023437500000e-01
1.092112517356872559e+01,3.502717018127441406e+00,-8.760383605957031250e+00,-4.647145271301269531e+00,-3.540039062500000000e+00,-1.907348632812500000e-01,7.095336914062500000e-01
1.093616771697998047e+01,3.502717018127441406e+00,-8.722076416015625000e+00,-4.647145271301269531e+00,-3.570556640625000000e+00,-1.907348632812500000e-01,6.942749023437500000e-01
1.094817256927490234e+01,3.502717018127441406e+00,-8.734047889709472656e+00,-4.647145271301269531e+00,-3.570556640625000000e+00,-4.577636718750000000e-02,6.942749023437500000e-01
1.096252989768981934e+01,3.502717018127441406e+00,-8.734047889709472656e+00,-4.642356872558593750e+00,-3.570556640625000000e+00,-4.577636718750000000e-02,6.942749023437500000e-01
1.097811269760131836e+01,3.524264812469482422e+00,-8.736441612243652344e+00,-4.642356872558593750e+00,-3.570556640625000000e+00,-4.577636718750000000e-02,6.942749023437500000e-01
1.099011969566345215e+01,3.524264812469482422e+00,-8.736441612243652344e+00,-4.642356872558593750e+00,-3.425598144531250000e+00,1.525878906250000000e-02,7.400512695312500000e-01
1.100534510612487793e+01,3.524264812469482422e+00,-8.757989883422851562e+00,-4.647145271301269531e+00,-3.654479980468750000e+00,-5.035400390625000000e-01,4.043579101562500000e-01
1.101642608642578125e+01,3.505111217498779741e+00,-8.729259490966796875e+00,-4.647145271301269531e+00,-3.570556640625000000e+00,1.525878906250000000e-02,7.171630859375000000e-01
1.103438401222229004e+01,3.593696594238280806e+00,-8.729259490966796875e+00,-4.666298866271972656e+00,-3.570556640625000000e+00,4.577636718750000000e-02,7.171630859375000000e-01
1.104524612426757812e+01,3.581725597381591797e+00,-8.707711219787597656e+00,-4.656722068786621094e+00,-3.570556640625000000e+00,4.577636718750000000e-02,7.171630859375000000e-01
1.105959630012512207e+01,3.581725597381591797e+00,-8.707711219787597656e+00,-4.656722068786621094e+00,-3.356933593750000000e+00,6.561279296875000000e-01,6.942749023437500000e-01
1.107327461242675781e+01,3.569754600524902344e+00,-8.753201484680175781e+00,-4.656722068786621094e+00,-3.677368164062500000e+00,2.593994140625000000e-01,4.653930664062500000e-01
1.108570241928100586e+01,3.541024208068848100e+00,-8.753201484680175781e+00,-4.673481464385986328e+00,-3.662109375000000000e+00,2.593994140625000000e-01,6.256103515625000000e-01
1.109749603271484375e+01,3.569754600524902344e+00,-8.702922821044921875e+00,-4.695029258728027344e+00,-3.662109375000000000e+00,-1.754760742187500000e-01,6.256103515625000000e-01
1.111513376235961914e+01,3.531447410583496094e+00,-8.702922821044921875e+00,-4.687846660614013672e+00,-3.631591796875000000e+00,-5.874633789062500000e-01,6.256103515625000000e-01
1.112791275978088379e+01,3.531447410583496094e+00,-8.772355079650878906e+00,-4.695029258728027344e+00,-3.631591796875000000e+00,-5.874633789062500000e-01,6.408691406250000000e-01
1.113952040672302246e+01,3.531447410583496094e+00,-8.772355079650878906e+00,-4.687846660614013672e+00,-3.631591796875000000e+00,-5.874633789062500000e-01,6.408691406250000000e-01
1.115710902214050293e+01,3.562572002410888672e+00,-8.746018409729003906e+00,-4.639962673187255859e+00,-3.723144531250000000e+00,5.340576171875000000e-01,6.408691406250000000e-01
1.117028617858886719e+01,3.562572002410888672e+00,-8.746018409729003906e+00,-4.639962673187255859e+00,-3.570556640625000000e+00,6.408691406250000000e-01,2.136230468750000000e-01
1.118232727050781250e+01,3.574542999267578125e+00,-8.746018409729003906e+00,-4.687846660614013672e+00,-3.761291503906250000e+00,6.408691406250000000e-01,1.831054687500000000e-01
1.119927048683166504e+01,3.574542999267578125e+00,-8.767566680908203125e+00,-4.687846660614013672e+00,-3.570556640625000000e+00,0.000000000000000000e+00,2.136230468750000000e-01
1.121003508567810059e+01,3.584119796752929688e+00,-8.743624687194824219e+00,-4.687846660614013672e+00,-3.318786621093750000e+00,0.000000000000000000e+00,5.645751953125000000e-01
1.122375822067260742e+01,3.636792421340942383e+00,-8.700529098510742188e+00,-4.699817657470703125e+00,-3.318786621093750000e+00,-1.068115234375000000e-01,5.645751953125000000e-01
1.123818111419677734e+01,3.636792421340942383e+00,-8.693346023559570312e+00,-4.735730648040772373e+00,-3.273010253906250000e+00,-3.128051757812500000e-01,5.645751953125000000e-01
1.125030136108398438e+01,3.567360401153564453e+00,-8.611943244934082031e+00,-4.699817657470703125e+00,-3.273010253906250000e+00,-3.128051757812500000e-01,7.934570312500000000e-01
1.126587629318237305e+01,3.533841609954833984e+00,-8.611943244934082031e+00,-4.659116268157958984e+00,-3.273010253906250000e+00,7.476806640625000000e-01,7.934570312500000000e-01
1.127787661552429199e+01,3.533841609954833984e+00,-8.717288017272949219e+00,-4.654327869415283203e+00,-3.211975097656250000e+00,7.476806640625000000e-01,7.934570312500000000e-01
1.129238104820251465e+01,3.605667591094970259e+00,-8.734047889709472656e+00,-4.659116268157958984e+00,-3.211975097656250000e+00,3.814697265625000000e-02,1.388549804687500000e+00
1.130527257919311523e+01,3.605667591094970259e+00,-8.734047889709472656e+00,-4.596867084503173828e+00,-3.021240234375000000e+00,3.814697265625000000e-02,1.388549804687500000e+00
1.132067036628723145e+01,3.481169223785400391e+00,-8.774748802185058594e+00,-4.659116268157958984e+00,-3.021240234375000000e+00,3.814697265625000000e-02,2.204895019531250000e+00
1.133149623870849609e+01,3.459621429443359819e+00,-8.774748802185058594e+00,-4.647145271301269531e+00,-3.456115722656250000e+00,1.907348632812500000e-01,9.307861328125000000e-01
1.134633111953735352e+01,3.450044631958007812e+00,-8.765172004699707031e+00,-4.647145271301269531e+00,-3.723144531250000000e+00,-7.400512695312500000e-01,2.380371093750000000e+00
1.135839843750000000e+01,3.450044631958007812e+00,-8.765172004699707031e+00,-4.647145271301269531e+00,-3.723144531250000000e+00,-6.637573242187500000e-01,2.822875976562500000e-01
1.137342572212219238e+01,3.375824451446533203e+00,-8.765172004699707031e+00,-4.742913722991943359e+00,-3.669738769531250000e+00,-6.637573242187500000e-01,1.052856445312500000e+00
1.138907241821289062e+01,3.564966201782226562e+00,-8.834604263305664062e+00,-4.742913722991943359e+00,-3.669738769531250000e+00,-1.983642578125000000e-01,1.052856445312500000e+00
1.140119647979736328e+01,3.564966201782226562e+00,-8.801085472106933594e+00,-4.651933670043945312e+00,-3.509521484375000000e+00,-1.602172851562500000e-01,1.731872558593750000e+00
1.141527223587036133e+01,3.564966201782226562e+00,-8.801085472106933594e+00,-4.651933670043945312e+00,-3.509521484375000000e+00,-1.983642578125000000e-01,1.754760742187500000e+00
1.142820906639099121e+01,3.373430252075195757e+00,-8.712499618530273438e+00,-4.788403511047363281e+00,-3.509521484375000000e+00,-1.014709472656250000e+00,1.754760742187500000e+00
1.144231128692626953e+01,3.373430252075195757e+00,-8.681375503540039062e+00,-4.802768707275390625e+00,-2.853393554687500000e+00,-2.700805664062500000e+00,1.930236816406250000e+00
1.145495223999023438e+01,3.725377798080443892e+00,-8.645462036132812500e+00,-4.788403511047363281e+00,-3.051757812500000000e+00,-2.777099609375000000e+00,2.326965332031250000e+00
1.146978139877319336e+01,3.725377798080443892e+00,-8.681375503540039062e+00,-4.690240859985351562e+00,-2.937316894531250000e+00,-2.777099609375000000e+00,3.265380859375000000e+00
1.148549747467041016e+01,3.598484992980957031e+00,-8.657433509826660156e+00,-4.690240859985351562e+00,-3.051757812500000000e+00,-9.384155273437500000e-01,4.425048828125000000e+00
1.149619078636169434e+01,3.493140220642089844e+00,-8.657433509826660156e+00,-4.714182853698730469e+00,-3.280639648437500000e+00,0.000000000000000000e+00,3.265380859375000000e+00
1.151142787933349609e+01,3.392583847045898438e+00,-8.592789649963378906e+00,-4.797980308532714844e+00,-3.280639648437500000e+00,-9.384155273437500000e-01,2.586364746093750000e+00
1.152363991737365723e+01,3.349488019943237305e+00,-8.592789649963378906e+00,-4.797980308532714844e+00,-2.532958984375000000e+00,9.613037109375000000e-01,2.204895019531250000e+00
1.153898882865905762e+01,3.347093820571899414e+00,-8.678980827331542969e+00,-4.797980308532714844e+00,-2.532958984375000000e+00,1.480102539062500000e+00,-8.010864257812500000e-01
1.155079388618469238e+01,3.347093820571899414e+00,-8.678980827331542969e+00,-4.733336448669433594e+00,-2.532958984375000000e+00,1.670837402343750000e+00,-8.010864257812500000e-01
1.156656217575073242e+01,3.478775024414062500e+00,-8.480262756347656250e+00,-4.733336448669433594e+00,-2.342224121093750000e+00,1.670837402343750000e+00,-5.035400390625000000e-01
1.157731199264526367e+01,3.701435804367065430e+00,-8.480262756347656250e+00,-4.671087265014648438e+00,-2.342224121093750000e+00,-2.136230468750000000e-01,2.311706542968750000e+00
1.159341716766357422e+01,3.507505416870117188e+00,-8.872911453247070312e+00,-4.716577053070068359e+00,-2.342224121093750000e+00,-2.136230468750000000e-01,2.311706542968750000e+00
1.160735130310058594e+01,3.507505416870117188e+00,-8.894458770751953125e+00,-4.716577053070068359e+00,-2.174377441406250000e+00,-2.136230468750000000e-01,3.135681152343750000e+00
1.162210631370544434e+01,3.390189647674560547e+00,-9.097966194152832031e+00,-4.769249916076660156e+00,-2.128601074218750000e+00,1.853942871093750000e+00,1.617431640625000000e+00
1.163531041145324707e+01,3.301604032516479492e+00,-9.097966194152832031e+00,-4.898536682128906250e+00,-1.785278320312500000e+00,1.983642578125000000e-01,4.501342773437500000e-01
1.164710569381713867e+01,3.258508443832397017e+00,-8.935160636901855469e+00,-4.936843872070312500e+00,-8.544921875000000000e-01,2.975463867187500000e-01,4.501342773437500000e-01
1.166417503356933594e+01,3.258508443832397017e+00,-8.757989883422851562e+00,-4.898536682128906250e+00,-2.899169921875000000e-01,2.975463867187500000e-01,3.967285156250000000e-01
1.167642807960510254e+01,3.464409828186035156e+00,-8.757989883422851562e+00,-4.537012100219726562e+00,-2.899169921875000000e-01,2.975463867187500000e-01,8.850097656250000000e-01
1.168911981582641602e+01,3.564966201782226562e+00,-8.647856712341308594e+00,-4.537012100219726562e+00,-2.899169921875000000e-01,1.220703125000000000e-01,1.258850097656250000e+00
1.170608448982238770e+01,3.564966201782226562e+00,-8.825027465820312500e+00,-4.879383087158203125e+00,1.617431640625000000e+00,-8.926391601562500000e-01,3.036499023437500000e+00
1.171669721603393555e+01,3.315969228744506836e+00,-9.275136947631835938e+00,-4.879383087158203125e+00,2.174377441406250000e+00,-1.777648925781250000e+00,3.669738769531250000e+00
1.173094296455383301e+01,3.315969228744506836e+00,-9.275136947631835938e+00,-4.879383087158203125e+00,5.065917968750000000e+00,-1.777648925781250000e+00,3.669738769531250000e+00
1.174509358406066895e+01,3.315969228744506836e+00,-9.263166427612304688e+00,-5.535394191741943359e+00,5.065917968750000000e+00,2.441406250000000000e-01,6.179809570312500000e-01
1.175770092010498047e+01,3.473986625671386719e+00,-9.263166427612304688e+00,-5.535394191741943359e+00,5.661010742187500000e+00,4.760742187500000000e+00,-3.890991210937500000e-01
1.177263665199279785e+01,3.150769472122192383e+00,-9.267954826354980469e+00,-4.843470096588134766e+00,5.661010742187500000e+00,6.118774414062500000e+00,-8.010864257812500000e-01
1.178712511062622070e+01,3.473986625671386719e+00,-9.509769439697265625e+00,-4.843470096588134766e+00,1.881408691406250000e+01,4.760742187500000000e+00,-1.487731933593750000e+00
1.179980754852294922e+01,4.716577053070068359e+00,-9.267954826354980469e+00,-4.623203277587890625e+00,1.881408691406250000e+01,1.737213134765625000e+01,-5.088806152343750000e+00
1.181155705451965332e+01,4.716577053070068359e+00,-8.901641845703125000e+00,-4.465186119079589844e+00,1.472473144531250000e+01,-5.676269531250000000e+00,-5.088806152343750000e+00
1.182925915718078613e+01,4.015076160430908203e+00,-8.176198959350585938e+00,-4.010287761688232422e+00,9.880065917968750000e+00,1.121520996093750000e+00,-2.723693847656250000e+00
1.184007620811462402e+01,3.821145772933959961e+00,-8.901641845703125000e+00,-4.010287761688232422e+00,7.804870605468750000e+00,-5.050659179687500000e+00,1.632690429687500000e+00
1.185373783111572266e+01,3.821145772933959961e+00,-8.944737434387207031e+00,-4.010287761688232422e+00,6.263732910156250000e+00,1.121520996093750000e+00,3.051757812500000000e+00
1.186932635307312012e+01,3.105279445648193359e+00,-9.203310966491699219e+00,-4.517858505249023438e+00,6.263732910156250000e+00,-6.103515625000000000e-01,3.051757812500000000e+00
1.188033080101013184e+01,3.105279445648193359e+00,-9.227252960205078125e+00,-4.517858505249023438e+00,1.027679443359375000e+01,8.392333984375000000e-02,-4.577636718750000000e-02
1.189610576629638672e+01,3.912125587463378906e+00,-9.303867340087890625e+00,-4.716577053070068359e+00,1.133728027343750000e+01,8.392333984375000000e-02,-5.157470703125000000e+00
1.190747475624084473e+01,3.912125587463378906e+00,-9.303867340087890625e+00,-4.721365451812744141e+00,1.133728027343750000e+01,3.608703613281250000e+00,-5.561828613281250000e+00
1.192306089401245117e+01,3.790021181106567827e+00,-9.303867340087890625e+00,-4.721365451812744141e+00,1.133728027343750000e+01,3.608703613281250000e+00,-5.157470703125000000e+00
1.193831157684326172e+01,3.790021181106567827e+00,-8.446743011474609375e+00,-3.617638826370239258e+00,7.545471191406250000e+00,-1.716613769531250000e+00,-2.891540527343750000e+00
1.194934511184692383e+01,3.780444383621215820e+00,-8.446743011474609375e+00,-3.617638826370239258e+00,9.834289550781250000e+00,-1.716613769531250000e+00,-2.021789550781250000e+00
1.196495509147644043e+01,3.780444383621215820e+00,-9.071630477905271661e+00,-3.938461780548096147e+00,9.834289550781250000e+00,2.960205078125000000e+00,-2.021789550781250000e+00
1.197701621055603027e+01,3.780444383621215820e+00,-9.258378028869627130e+00,-3.938461780548096147e+00,1.393127441406250000e+01,2.960205078125000000e+00,-2.021789550781250000e+00
1.199230813980102539e+01,3.624821424484252930e+00,-9.258378028869627130e+00,-4.144362926483154297e+00,1.393127441406250000e+01,-3.509521484375000000e-01,-1.335144042968750000e+00
1.200732469558715820e+01,3.708618402481079102e+00,-9.258378028869627130e+00,-4.144362926483154297e+00,2.098083496093750000e+00,-1.594543457031250000e+00,-1.335144042968750000e+00
1.201831579208374023e+01,3.708618402481079102e+00,-8.918400764465332031e+00,-4.144362926483154297e+00,2.014160156250000000e+00,-3.509521484375000000e-01,-1.686096191406250000e+00
1.203373312950134277e+01,3.708618402481079102e+00,-8.918400764465332031e+00,-3.890577793121337891e+00,2.014160156250000000e+00,1.510620117187500000e+00,-3.875732421875000000e+00
1.204618501663208008e+01,3.813963174819945401e+00,-8.386888504028320312e+00,-3.241749048233031782e+00,1.152038574218750000e+00,1.510620117187500000e+00,-3.875732421875000000e+00
1.206054329872131348e+01,3.179499864578247070e+00,-8.386888504028320312e+00,-3.241749048233031782e+00,1.152038574218750000e+00,3.280639648437500000e-01,-1.296997070312500000e-01
1.207235026359558105e+01,3.505111217498779741e+00,-9.064447402954101562e+00,-3.241749048233031782e+00,1.388549804687500000e+00,-7.339477539062500000e+00,5.424499511718750000e+00
1.208756971359252930e+01,2.724601507186889648e+00,-9.133879661560060370e+00,-4.438849925994873047e+00,2.166748046875000000e+00,-7.339477539062500000e+00,5.424499511718750000e+00
1.209927344322204590e+01,2.559401512145996094e+00,-1.007240676879882812e+01,-4.438849925994873047e+00,3.005981445312500000e+00,-8.445739746093750000e+00,2.708435058593750000e+00
1.211507129669189453e+01,2.559401512145996094e+00,-9.133879661560060370e+00,-4.659116268157958984e+00,4.867553710937500000e+00,-5.775451660156250000e+00,3.280639648437500000e-01
1.213010573387145996e+01,4.386177539825440341e+00,-1.038844108581542969e+01,-3.270479440689086914e+00,4.867553710937500000e+00,-1.144409179687500000e-01,2.822875976562500000e-01
1.214138770103454590e+01,4.386177539825440341e+00,-8.276755332946777344e+00,-4.125209331512451172e+00,-4.501342773437500000e-01,-1.144409179687500000e-01,2.822875976562500000e-01
1.215699958801269531e+01,3.813963174819945401e+00,-8.942342758178710938e+00,-3.572148799896239790e+00,-4.501342773437500000e-01,5.187988281250000000e-01,8.697509765625000000e-01
1.216893935203552246e+01,3.145981073379516602e+00,-8.729259490966796875e+00,-3.572148799896239790e+00,9.689331054687500000e-01,5.187988281250000000e-01,8.697509765625000000e-01
1.218441295623779297e+01,2.834734678268432617e+00,-8.784325599670410156e+00,-3.311180830001831055e+00,9.689331054687500000e-01,1.846313476562500000e+00,9.155273437500000000e-02
1.219587826728820801e+01,3.145981073379516602e+00,-8.784325599670410156e+00,-3.311180830001831055e+00,9.689331054687500000e-01,1.846313476562500000e+00,-9.994506835937500000e-01
1.221095681190490723e+01,4.156333923339843750e+00,-8.784325599670410156e+00,-3.311180830001831055e+00,-2.212524414062500000e+00,1.922607421875000000e+00,-1.853942871093750000e+00
1.222533583641052246e+01,4.156333923339843750e+00,-9.351751327514648438e+00,-3.529053211212158203e+00,3.890991210937500000e-01,8.621215820312500000e-01,-9.994506835937500000e-01
1.223815727233886719e+01,3.871424198150634322e+00,-8.904035568237304688e+00,-3.529053211212158203e+00,-3.562927246093750000e+00,-3.761291503906250000e+00,5.073547363281250000e+00
1.225501251220703125e+01,3.323151826858520508e+00,-9.239224433898925781e+00,-3.933673381805419922e+00,3.890991210937500000e-01,-3.761291503906250000e+00,5.073547363281250000e+00
1.226555037498474121e+01,3.323151826858520508e+00,-9.074024200439451349e+00,-3.933673381805419922e+00,-1.602172851562500000e+00,4.577636718750000000e-02,1.251220703125000000e+00
1.227966332435607910e+01,3.323151826858520508e+00,-9.074024200439451349e+00,-3.517082214355468750e+00,-2.517700195312500000e-01,4.577636718750000000e-02,-9.841918945312500000e-01
1.229710197448730469e+01,3.335122823715209961e+00,-8.827421188354492188e+00,-3.517082214355468750e+00,-1.602172851562500000e+00,2.693176269531250000e+00,-2.067565917968750000e+00
1.230786919593811035e+01,3.335122823715209961e+00,-8.827421188354492188e+00,-3.517082214355468750e+00,-4.173278808593750000e+00,-7.400512695312500000e-01,-9.841918945312500000e-01
1.232198429107666016e+01,3.335122823715209961e+00,-8.827421188354492188e+00,-3.313575029373168945e+00,-4.173278808593750000e+00,3.814697265625000000e-02,4.554748535156250000e+00
1.233605313301086426e+01,3.912125587463378906e+00,-9.277531623840332031e+00,-3.313575029373168945e+00,-3.372192382812500000e+00,-2.891540527343750000e+00,4.554748535156250000e+00
1.234879064559936523e+01,3.969586372375487837e+00,-9.232041358947753906e+00,-4.206612110137940341e+00,-3.372192382812500000e+00,3.814697265625000000e-02,4.318237304687500000e+00
1.236044788360595703e+01,3.912125587463378906e+00,-9.232041358947753906e+00,-4.206612110137940341e+00,-2.815246582031250000e+00,3.028869628906250000e+00,-9.613037109375000000e-01
1.237804675102233887e+01,3.828328371047973633e+00,-9.232041358947753906e+00,-3.900154590606689453e+00,-2.815246582031250000e+00,4.364013671875000000e+00,-1.686096191406250000e+00
1.239092683792114258e+01,3.196259260177612305e+00,-8.662221908569335938e+00,-3.825934171676636186e+00,-2.204895019531250000e+00,4.364013671875000000e+00,-1.686096191406250000e+00
1.240292358398437500e+01,3.828328371047973633e+00,-9.215282440185548651e+00,-3.900154590606689453e+00,-2.204895019531250000e+00,1.518249511718750000e+00,3.410339355468750000e+00
1.242017292976379395e+01,3.596090793609619141e+00,-8.997409820556640625e+00,-3.196259260177612305e+00,-4.478454589843750000e+00,1.251220703125000000e+00,3.410339355468750000e+00
1.243092942237854004e+01,3.596090793609619141e+00,-9.215282440185548651e+00,-3.770867586135863814e+00,-4.478454589843750000e+00,1.251220703125000000e+00,2.731323242187500000e+00
1.244525909423828125e+01,3.596090793609619141e+00,-9.028534889221191406e+00,-3.770867586135863814e+00,-4.356384277343750000e+00,-1.777648925781250000e+00,1.777648925781250000e+00
1.245910978317260742e+01,3.768473386764526367e+00,-9.552865028381347656e+00,-3.866635799407958984e+00,-3.852844238281250000e+00,-1.937866210937500000e+00,1.777648925781250000e+00
1.247182750701904297e+01,3.768473386764526367e+00,-9.028534889221191406e+00,-3.866635799407958984e+00,-1.884460449218750000e+00,-1.937866210937500000e+00,8.010864257812500000e-01
1.248737525939941406e+01,3.682282209396361417e+00,-8.990227699279785156e+00,-3.447650432586669922e+00,-1.884460449218750000e+00,-1.937866210937500000e+00,8.010864257812500000e-01
1.249914574623107910e+01,3.682282209396361417e+00,-8.564059257507324219e+00,-3.447650432586669922e+00,-1.884460449218750000e+00,-2.815246582031250000e+00,2.616882324218750000e+00
1.251355528831481934e+01,3.706224203109741211e+00,-8.564059257507324219e+00,-3.447650432586669922e+00,-2.777099609375000000e+00,-2.815246582031250000e+00,2.616882324218750000e+00
1.252631568908691406e+01,3.706224203109741211e+00,-9.009381294250488281e+00,-3.768473386764526367e+00,-3.028869628906250000e+00,-2.815246582031250000e+00,2.616882324218750000e+00
1.254111170768737793e+01,3.806780576705932617e+00,-9.265560150146484375e+00,-4.072536945343017578e+00,-3.028869628906250000e+00,-1.205444335937500000e+00,1.861572265625000000e+00
1.255331492424011230e+01,3.155557870864868164e+00,-9.387664794921876776e+00,-4.163516521453857422e+00,-9.231567382812500000e-01,-3.227233886718750000e+00,1.655578613281250000e+00
1.257133030891418457e+01,3.806780576705932617e+00,-9.387664794921876776e+00,-4.163516521453857422e+00,-9.231567382812500000e-01,-8.087158203125000000e-01,1.655578613281250000e+00
1.258185410499572754e+01,3.576937198638916016e+00,-8.944737434387207031e+00,-4.175487518310546875e+00,-2.189636230468750000e+00,-5.493164062500000000e-01,1.655578613281250000e+00
1.259469342231750488e+01,4.134786128997802734e+00,-8.944737434387207031e+00,-3.663128614425659180e+00,-2.937316894531250000e+00,9.307861328125000000e-01,1.396179199218750000e+00
1.260668110847473145e+01,3.689464807510375977e+00,-8.851363182067871094e+00,-3.663128614425659180e+00,-3.356933593750000000e+00,2.883911132812500000e+00,-1.274108886718750000e+00
1.262200093269348145e+01,3.689464807510375977e+00,-8.851363182067871094e+00,-3.663128614425659180e+00,-3.356933593750000000e+00,2.883911132812500000e+00,-9.002685546875000000e-01
1.263703823089599609e+01,3.531447410583496094e+00,-8.851363182067871094e+00,-3.509899616241455078e+00,-3.356933593750000000e+00,3.364562988281250000e+00,-1.853942871093750000e+00
1.264830970764160156e+01,3.196259260177612305e+00,-9.088389396667480469e+00,-3.567360401153564453e+00,-3.524780273437500000e+00,7.019042968750000000e-01,-9.002685546875000000e-01
1.266346669197082520e+01,3.404554843902587891e+00,-9.088389396667480469e+00,-3.567360401153564453e+00,-3.524780273437500000e+00,-1.159667968750000000e+00,7.629394531250000000e-02
1.267558121681213379e+01,3.404554843902587891e+00,-9.540893554687500000e+00,-3.964797973632812944e+00,-2.525329589843750000e+00,-4.074096679687500000e+00,1.144409179687500000e+00
1.269137907028198242e+01,3.612850189208983931e+00,-8.875305175781250000e+00,-3.964797973632812944e+00,-2.525329589843750000e+00,-4.074096679687500000e+00,2.120971679687500000e+00
1.270251750946044922e+01,4.127603530883789062e+00,-8.939949035644531250e+00,-4.074931144714356357e+00,-2.807617187500000000e+00,-7.629394531250000000e-03,2.120971679687500000e+00
1.271802520751953125e+01,4.127603530883789062e+00,-8.939949035644531250e+00,-3.689464807510375977e+00,-2.807617187500000000e+00,2.761840820312500000e+00,-1.617431640625000000e+00
1.273235654830932617e+01,3.478775024414062500e+00,-9.069235801696775567e+00,-3.689464807510375977e+00,-4.127502441406250000e+00,2.761840820312500000e+00,-1.617431640625000000e+00
1.274483299255371094e+01,3.196259260177612305e+00,-9.229647636413574219e+00,-3.689464807510375977e+00,-3.311157226562500000e+00,-4.425048828125000000e-01,8.392333984375000000e-01
1.275978493690490723e+01,3.196259260177612305e+00,-9.229647636413574219e+00,-3.591302394866943803e+00,-3.311157226562500000e+00,-2.006530761718750000e+00,1.701354980468750000e+00
1.277209925651550293e+01,3.761290788650512695e+00,-8.966284751892089844e+00,-3.591302394866943803e+00,-3.135681152343750000e+00,-2.006530761718750000e+00,1.701354980468750000e+00
1.278724002838134766e+01,3.761290788650512695e+00,-8.966284751892089844e+00,-3.591302394866943803e+00,-3.135681152343750000e+00,1.022338867187500000e+00,-1.686096191406250000e+00
1.279844498634338379e+01,3.497928619384765625e+00,-9.026140213012695312e+00,-3.643975019454956055e+00,-3.456115722656250000e+00,1.022338867187500000e+00,-1.686096191406250000e+00
1.281429457664489746e+01,3.497928619384765625e+00,-9.047688484191896308e+00,-3.988739967346191850e+00,-3.456115722656250000e+00,-2.021789550781250000e+00,1.510620117187500000e+00
1.282838964462280273e+01,3.588908195495605025e+00,-9.026140213012695312e+00,-3.988739967346191850e+00,-3.166198730468750000e+00,-2.021789550781250000e+00,1.510620117187500000e+00
1.284030818939208984e+01,3.634398221969604936e+00,-8.944737434387207031e+00,-3.801992177963256836e+00,-2.082824707031250000e+00,9.918212890625000000e-02,-1.449584960937500000e-01
1.285598254203796387e+01,3.687070608139038086e+00,-8.944737434387207031e+00,-3.703830003738403320e+00,-2.082824707031250000e+00,9.613037109375000000e-01,-4.196166992187500000e-01
1.286742019653320312e+01,3.634398221969604936e+00,-8.956707954406738281e+00,-3.703830003738403320e+00,-3.440856933593750000e+00,9.613037109375000000e-01,-4.196166992187500000e-01
1.288520860671997070e+01,3.687070608139038086e+00,-9.210494041442872870e+00,-3.703830003738403320e+00,-3.562927246093750000e+00,-3.814697265625000000e-01,2.182006835937500000e+00
1.289857721328735352e+01,3.208230257034301758e+00,-9.437942504882812500e+00,-3.473986625671386719e+00,-3.440856933593750000e+00,-3.814697265625000000e-01,2.182006835937500000e+00
1.290963721275329590e+01,3.323151826858520508e+00,-9.437942504882812500e+00,-3.473986625671386719e+00,-3.562927246093750000e+00,-9.307861328125000000e-01,5.569458007812500000e-01
1.292718911170959473e+01,3.323151826858520508e+00,-8.990227699279785156e+00,-3.883395195007324219e+00,-2.296447753906250000e+00,-9.613037109375000000e-01,3.738403320312500000e-01
1.293789815902709961e+01,3.804386377334594282e+00,-8.853757858276367188e+00,-3.883395195007324219e+00,-2.555847167968750000e+00,-1.716613769531250000e+00,5.569458007812500000e-01
1.295163202285766602e+01,3.981557369232177734e+00,-8.990227699279785156e+00,-3.636792421340942383e+00,-2.555847167968750000e+00,-1.716613769531250000e+00,3.814697265625000000e-01
1.296611499786376953e+01,3.981557369232177734e+00,-8.815450668334960938e+00,-3.636792421340942383e+00,-2.555847167968750000e+00,9.918212890625000000e-01,3.814697265625000000e-01
1.297915291786193848e+01,3.490746021270751953e+00,-8.853757858276367188e+00,-3.636792421340942383e+00,-3.013610839843750000e+00,9.918212890625000000e-01,-1.754760742187500000e-01
1.299099850654602051e+01,3.280056238174438477e+00,-8.853757858276367188e+00,-3.579331398010253906e+00,-2.296447753906250000e+00,3.967285156250000000e-01,-1.754760742187500000e-01
1.300807714462280273e+01,3.490746021270751953e+00,-9.258378028869627130e+00,-3.579331398010253906e+00,-3.013610839843750000e+00,-2.235412597656250000e+00,2.388000488281250000e+00
1.301931071281433105e+01,3.780444383621215820e+00,-9.282320022583007812e+00,-3.579331398010253906e+00,-3.692626953125000000e+00,-2.235412597656250000e+00,2.388000488281250000e+00
1.303253698348999023e+01,3.780444383621215820e+00,-9.282320022583007812e+00,-3.864241361618041992e+00,-3.692626953125000000e+00,8.850097656250000000e-01,-1.716613769531250000e+00
1.304715895652770996e+01,3.792415380477904829e+00,-9.282320022583007812e+00,-3.787626981735229492e+00,-3.204345703125000000e+00,8.850097656250000000e-01,-1.716613769531250000e+00
1.306024670600891113e+01,3.241749048233031782e+00,-8.791508674621582031e+00,-3.864241361618041992e+00,-3.204345703125000000e+00,4.348754882812500000e-01,-1.564025878906250000e+00
1.307466316223144531e+01,3.703830003738403320e+00,-8.746018409729003906e+00,-3.787626981735229492e+00,-3.204345703125000000e+00,-2.670288085937500000e-01,-6.790161132812500000e-01
1.308906459808349609e+01,3.703830003738403320e+00,-8.746018409729003906e+00,-3.785232782363892046e+00,-3.639221191406250000e+00,-1.396179199218750000e+00,3.494262695312500000e+00
1.310224866867065430e+01,3.703830003738403320e+00,-8.746018409729003906e+00,-3.785232782363892046e+00,-4.478454589843750000e+00,-1.396179199218750000e+00,3.494262695312500000e+00
1.311373949050903320e+01,4.137180328369140625e+00,-9.016563415527343750e+00,-3.739742994308472124e+00,-4.478454589843750000e+00,1.571655273437500000e+00,-8.010864257812500000e-01
1.312881112098693848e+01,3.430891036987304688e+00,-9.612719535827636719e+00,-3.615244388580321822e+00,-3.814697265625000000e+00,1.571655273437500000e+00,-2.510070800781250000e+00
1.314420747756958008e+01,3.430891036987304688e+00,-9.612719535827636719e+00,-3.615244388580321822e+00,-3.814697265625000000e+00,-1.434326171875000000e+00,-2.510070800781250000e+00
1.315587258338928223e+01,3.342305421829224077e+00,-9.275136947631835938e+00,-3.615244388580321822e+00,-4.486083984375000000e+00,-1.434326171875000000e+00,2.754211425781250000e+00
1.317128157615661621e+01,3.342305421829224077e+00,-9.251194953918455255e+00,-3.361459016799926758e+00,-4.486083984375000000e+00,-1.258850097656250000e+00,2.754211425781250000e+00
1.318246078491210938e+01,3.548206806182861328e+00,-9.251194953918455255e+00,-3.361459016799926758e+00,-3.311157226562500000e+00,-1.258850097656250000e+00,3.707885742187500000e+00
1.319771981239318848e+01,3.849876165390015093e+00,-8.860939979553222656e+00,-3.775655984878540039e+00,-3.311157226562500000e+00,-1.258850097656250000e+00,2.548217773437500000e+00
1.320966601371765137e+01,3.849876165390015093e+00,-8.848969459533691406e+00,-3.775655984878540039e+00,-3.311157226562500000e+00,7.705688476562500000e-01,2.548217773437500000e+00
1.322495222091674805e+01,4.082113742828369141e+00,-8.860939979553222656e+00,-3.775655984878540039e+00,-3.456115722656250000e+00,7.705688476562500000e-01,2.548217773437500000e+00
1.323997950553894043e+01,4.082113742828369141e+00,-9.074024200439451349e+00,-3.722983598709105557e+00,-3.585815429687500000e+00,7.705688476562500000e-01,1.831054687500000000e+00
1.325196671485900879e+01,4.031835556030273438e+00,-9.583989143371582031e+00,-3.722983598709105557e+00,-5.645751953125000000e+00,1.220703125000000000e+00,8.697509765625000000e-01
1.326707935333251953e+01,3.861847162246704102e+00,-9.583989143371582031e+00,-3.722983598709105557e+00,-5.645751953125000000e+00,1.220703125000000000e+00,8.239746093750000000e-01
1.327867197990417480e+01,3.861847162246704102e+00,-9.325415611267089844e+00,-3.713406801223754883e+00,-2.563476562500000000e+00,3.890991210937500000e-01,5.111694335937500000e-01
1.329353809356689453e+01,4.230554103851318359e+00,-9.325415611267089844e+00,-3.902548789978027344e+00,-2.563476562500000000e+00,-1.358032226562500000e+00,5.111694335937500000e-01
1.330599427223205566e+01,4.230554103851318359e+00,-9.325415611267089844e+00,-3.902548789978027344e+00,-2.342224121093750000e+00,-1.358032226562500000e+00,7.171630859375000000e-01
1.332071709632873535e+01,3.876212596893310991e+00,-9.172186851501464844e+00,-3.902548789978027344e+00,-3.440856933593750000e+00,-2.120971679687500000e+00,1.152038574218750000e+00
1.333284211158752441e+01,3.876212596893310991e+00,-9.172186851501464844e+00,-3.811568975448607954e+00,-3.440856933593750000e+00,-5.950927734375000000e-01,2.120971679687500000e+00
1.334794449806213379e+01,3.780444383621215820e+00,-9.279925346374511719e+00,-3.713406801223754883e+00,-4.501342773437500000e+00,2.395629882812500000e+00,2.120971679687500000e+00
1.336331129074096680e+01,3.780444383621215820e+00,-9.279925346374511719e+00,-3.713406801223754883e+00,-5.241394042968750000e+00,2.395629882812500000e+00,2.120971679687500000e+00
1.337517309188842773e+01,3.780444383621215820e+00,-9.279925346374511719e+00,-3.782838582992553711e+00,-5.241394042968750000e+00,2.929687500000000000e+00,2.723693847656250000e+00
1.339007306098937988e+01,3.926490783691406250e+00,-9.562441825866699219e+00,-3.782838582992553711e+00,-5.241394042968750000e+00,2.601623535156250000e+00,2.723693847656250000e+00
1.340234947204589844e+01,3.926490783691406250e+00,-9.562441825866699219e+00,-3.782838582992553711e+00,-4.592895507812500000e+00,2.601623535156250000e+00,1.983642578125000000e-01
1.341641712188720703e+01,3.066972255706787109e+00,-9.244012832641601562e+00,-3.962403774261474609e+00,-3.646850585937500000e+00,-4.577636718750000000e-02,1.983642578125000000e-01
1.342901444435119629e+01,3.066972255706787109e+00,-9.232041358947753906e+00,-3.962403774261474609e+00,-3.646850585937500000e+00,-7.019042968750000000e-01,1.312255859375000000e+00
1.344370293617248535e+01,3.952826976776123047e+00,-9.119514465332031250e+00,-2.839523077011108398e+00,-7.087707519531250000e+00,-7.019042968750000000e-01,1.312255859375000000e+00
1.345890212059020996e+01,3.952826976776123047e+00,-8.765172004699707031e+00,-2.839523077011108398e+00,-7.087707519531250000e+00,4.188537597656250000e+00,3.662109375000000000e-01
1.347092795372009277e+01,3.399766445159912109e+00,-8.765172004699707031e+00,-3.241749048233031782e+00,-7.156372070312500000e+00,4.188537597656250000e+00,3.662109375000000000e-01
1.348632812500000000e+01,2.875436305999755859e+00,-9.404423713684082031e+00,-3.241749048233031782e+00,-7.209777832031250000e+00,2.670288085937500000e-01,5.111694335937500000e-01
1.349762105941772461e+01,2.875436305999755859e+00,-9.404423713684082031e+00,-3.071760654449462891e+00,-7.209777832031250000e+00,2.670288085937500000e-01,1.823425292968750000e+00
1.351513457298278809e+01,3.888183593750000000e+00,-9.267954826354980469e+00,-3.071760654449462891e+00,-5.455017089843750000e+00,3.128051757812500000e-01,1.823425292968750000e+00
1.352593970298767090e+01,3.888183593750000000e+00,-9.117119789123535156e+00,-3.485957622528076172e+00,-3.067016601562500000e+00,3.128051757812500000e-01,-1.861572265625000000e+00
1.353999209403991699e+01,3.579331398010253906e+00,-9.117119789123535156e+00,-4.067748546600341797e+00,-5.455017089843750000e+00,-6.103515625000000000e-02,-1.861572265625000000e+00
1.355713987350463867e+01,3.481169223785400391e+00,-9.117119789123535156e+00,-4.082113742828369141e+00,-4.058837890625000000e+00,-6.103515625000000000e-02,-1.159667968750000000e+00
1.356782937049865723e+01,3.323151826858520508e+00,-9.421183586120603692e+00,-4.082113742828369141e+00,-5.950927734375000000e+00,1.144409179687500000e-01,6.103515625000000000e-01
1.358186030387878418e+01,3.323151826858520508e+00,-9.421183586120603692e+00,-3.303998231887817383e+00,-4.058837890625000000e+00,1.144409179687500000e-01,6.103515625000000000e-01
1.359621858596801758e+01,4.304774761199951172e+00,-9.703699111938476562e+00,-3.303998231887817383e+00,-5.950927734375000000e+00,3.570556640625000000e+00,-1.487731933593750000e+00
1.360852146148681641e+01,4.304774761199951172e+00,-9.780313491821287286e+00,-3.878606796264647993e+00,-6.156921386718750000e+00,3.570556640625000000e+00,-1.487731933593750000e+00
1.362056422233581543e+01,2.059013366699218750e+00,-9.780313491821287286e+00,-3.878606796264647993e+00,-6.156921386718750000e+00,3.570556640625000000e+00,7.019042968750000000e-01
1.363810038566589355e+01,2.059013366699218750e+00,-8.080430984497070312e+00,-3.193865060806274414e+00,-5.691528320312500000e+00,-6.706237792968750000e+00,2.639770507812500000e+00
1.365132522583007812e+01,2.291250944137572798e+00,-8.080430984497070312e+00,-3.193865060806274414e+00,-5.447387695312500000e+00,-6.706237792968750000e+00,2.639770507812500000e+00
1.366264629364013672e+01,3.983951568603516069e+00,-9.610325813293455255e+00,-4.285621166229248047e+00,-2.838134765625000000e+00,2.441406250000000000e-01,1.914978027343750000e+00
1.368012762069702148e+01,3.983951568603516069e+00,-9.610325813293455255e+00,-4.285621166229248047e+00,-2.838134765625000000e+00,1.792907714843750000e+00,3.890991210937500000e-01
1.369119119644165039e+01,3.983951568603516069e+00,-8.825027465820312500e+00,-3.682282209396361417e+00,-4.119873046875000000e+00,1.792907714843750000e+00,-3.433227539062500000e-01
1.370528650283813477e+01,3.921702384948730469e+00,-8.825027465820312500e+00,-3.682282209396361417e+00,-4.119873046875000000e+00,-1.960754394531250000e+00,-3.433227539062500000e-01
1.372209692001342773e+01,3.840299367904663086e+00,-8.916007041931152344e+00,-3.945644378662108931e+00,-4.119873046875000000e+00,-2.075195312500000000e+00,7.019042968750000000e-01
1.373330163955688477e+01,3.813963174819945401e+00,-9.107542991638183594e+00,-4.084507942199707031e+00,-4.394531250000000000e+00,-2.075195312500000000e+00,5.554199218750000000e+00
1.374695849418640137e+01,3.813963174819945401e+00,-9.579200744628906250e+00,-4.280832767486572266e+00,-4.394531250000000000e+00,-1.632690429687500000e+00,5.554199218750000000e+00
1.376121997833251953e+01,4.129997730255126953e+00,-9.617507934570312500e+00,-4.280832767486572266e+00,-3.189086914062500000e+00,-1.632690429687500000e+00,-4.577636718750000000e-02
1.377414464950561523e+01,4.129997730255126953e+00,-9.579200744628906250e+00,-4.280832767486572266e+00,-2.830505371093750000e+00,-1.632690429687500000e+00,-4.577636718750000000e-02
1.378573799133300781e+01,3.224989652633666992e+00,-9.481039047241212714e+00,-4.017470359802246094e+00,-2.723693847656250000e+00,-9.460449218750000000e-01,1.792907714843750000e+00
1.380048537254333496e+01,3.224989652633666992e+00,-9.308655738830566406e+00,-4.017470359802246094e+00,-2.723693847656250000e+00,-1.983642578125000000e-01,2.754211425781250000e+00
1.381311249732971191e+01,4.326322555541992188e+00,-8.633491516113281250e+00,-3.605667591094970259e+00,-3.654479980468750000e+00,-1.983642578125000000e-01,2.754211425781250000e+00
1.382791280746459961e+01,4.326322555541992188e+00,-8.633491516113281250e+00,-3.605667591094970259e+00,-3.738403320312500000e+00,-2.441406250000000000e-01,2.754211425781250000e+00
1.384326171875000000e+01,3.009511470794677734e+00,-9.342174530029296875e+00,-3.672705411911010298e+00,-3.738403320312500000e+00,-2.441406250000000000e-01,4.196166992187500000e+00
1.385507345199584961e+01,3.009511470794677734e+00,-9.402029991149902344e+00,-3.672705411911010298e+00,-3.417968750000000000e+00,1.007080078125000000e+00,4.196166992187500000e+00
1.386979317665100098e+01,3.950432777404785156e+00,-9.555258750915527344e+00,-3.672705411911010298e+00,-3.288269042968750000e+00,1.007080078125000000e+00,2.761840820312500000e+00
1.388167262077331543e+01,3.950432777404785156e+00,-9.555258750915527344e+00,-4.019864559173583984e+00,-2.624511718750000000e+00,-6.103515625000000000e-01,2.761840820312500000e+00
1.389689373970031738e+01,3.950432777404785156e+00,-9.148244857788085938e+00,-4.019864559173583984e+00,-2.624511718750000000e+00,-6.103515625000000000e-01,3.181457519531250000e+00
1.390983510017395020e+01,4.096478939056396484e+00,-8.944737434387207031e+00,-4.019864559173583984e+00,-1.899719238281250000e+00,-4.425048828125000000e-01,3.181457519531250000e+00
1.392410826683044434e+01,4.096478939056396484e+00,-8.944737434387207031e+00,-4.077325344085693359e+00,-3.128051757812500000e+00,-4.425048828125000000e-01,1.617431640625000000e+00
1.393922877311706543e+01,4.232948303222656250e+00,-9.059659004211425781e+00,-4.077325344085693359e+00,-3.128051757812500000e+00,-4.425048828125000000e-01,1.617431640625000000e+00
1.395105051994323730e+01,4.472368717193604404e+00,-9.112331390380859375e+00,-3.931279182434082031e+00,-4.867553710937500000e+00,1.197814941406250000e+00,1.777648925781250000e+00
1.396599555015563965e+01,4.472368717193604404e+00,-9.641449928283691406e+00,-3.931279182434082031e+00,-4.867553710937500000e+00,1.197814941406250000e+00,1.777648925781250000e+00
1.397794985771179199e+01,2.671929121017456055e+00,-9.641449928283691406e+00,-3.931279182434082031e+00,-3.570556640625000000e+00,-6.713867187500000000e-01,-1.258850097656250000e+00
1.399252176284790039e+01,2.671929121017456055e+00,-9.603142738342283380e+00,-3.866635799407958984e+00,-3.570556640625000000e+00,-6.713867187500000000e-01,-1.258850097656250000e+00
1.400489783287048340e+01,3.694253206253052202e+00,-9.100360870361328125e+00,-3.823539972305297852e+00,-4.455566406250000000e+00,4.730224609375000000e-01,-9.460449218750000000e-01
1.402021050453186035e+01,3.840299367904663086e+00,-8.935160636901855469e+00,-3.347093820571899414e+00,-4.570007324218750000e+00,1.731872558593750000e+00,2.143859863281250000e+00
1.403468275070190430e+01,3.840299367904663086e+00,-8.935160636901855469e+00,-3.347093820571899414e+00,-4.455566406250000000e+00,1.731872558593750000e+00,2.143859863281250000e+00
1.404705238342285156e+01,3.610455989837647373e+00,-9.100360870361328125e+00,-3.632004022598266602e+00,-3.105163574218750000e+00,-1.983642578125000000e+00,-5.035400390625000000e-01
1.406235361099243164e+01,3.572148799896239790e+00,-9.291896820068359375e+00,-4.283226966857910156e+00,-3.105163574218750000e+00,-1.983642578125000000e+00,-5.035400390625000000e-01
1.407478475570678711e+01,3.485957622528076172e+00,-9.291896820068359375e+00,-4.283226966857910156e+00,-3.639221191406250000e+00,5.340576171875000000e-02,1.892089843750000000e+00
1.408914923667907715e+01,3.572148799896239790e+00,-8.729259490966796875e+00,-3.746925592422484907e+00,-4.753112792968750000e+00,1.258850097656250000e+00,1.892089843750000000e+00
1.410429310798645020e+01,3.485957622528076172e+00,-8.729259490966796875e+00,-3.746925592422484907e+00,-4.753112792968750000e+00,1.258850097656250000e+00,6.256103515625000000e-01
1.411600923538208008e+01,3.052607059478760210e+00,-9.394846916198730469e+00,-4.000710964202880859e+00,-3.433227539062500000e+00,-3.471374511718750000e+00,5.722045898437500000e-01
1.413114118576049805e+01,3.052607059478760210e+00,-9.394846916198730469e+00,-4.000710964202880859e+00,-3.433227539062500000e+00,-3.471374511718750000e+00,5.722045898437500000e-01
1.414520859718322754e+01,4.041412353515625000e+00,-9.191340446472167969e+00,-3.524264812469482422e+00,-3.890991210937500000e+00,-5.874633789062500000e-01,1.014709472656250000e+00
1.415834808349609375e+01,4.041412353515625000e+00,-8.961496353149414062e+00,-3.524264812469482422e+00,-3.890991210937500000e+00,-5.874633789062500000e-01,1.014709472656250000e+00
1.416925454139709473e+01,3.514688014984130859e+00,-8.916007041931152344e+00,-3.895366191864013672e+00,-3.593444824218750000e+00,-5.874633789062500000e-01,7.705688476562500000e-01
1.418710136413574219e+01,3.514688014984130859e+00,-8.961496353149414062e+00,-3.907337188720703125e+00,-3.593444824218750000e+00,-3.204345703125000000e-01,7.705688476562500000e-01
1.420048451423645020e+01,3.888183593750000000e+00,-9.200917243957519531e+00,-3.907337188720703125e+00,-4.081726074218750000e+00,8.468627929687500000e-01,1.029968261718750000e+00
1.421267008781433105e+01,3.888183593750000000e+00,-9.282320022583007812e+00,-3.907337188720703125e+00,-4.081726074218750000e+00,8.468627929687500000e-01,1.029968261718750000e+00
1.422908329963684082e+01,3.445256233215332031e+00,-9.366116523742675781e+00,-3.873818397521972656e+00,-4.020690917968750000e+00,2.365112304687500000e-01,6.027221679687500000e-01
1.423991250991821289e+01,3.354276418685913086e+00,-9.366116523742675781e+00,-3.873818397521972656e+00,-3.540039062500000000e+00,5.340576171875000000e-02,6.027221679687500000e-01
1.425444579124450684e+01,3.354276418685913086e+00,-9.064447402954101562e+00,-3.873818397521972656e+00,-3.540039062500000000e+00,-5.340576171875000000e-02,6.408691406250000000e-01
1.427112603187561035e+01,3.730166196823120117e+00,-8.954314231872558594e+00,-3.811568975448607954e+00,-3.921508789062500000e+00,-5.340576171875000000e-02,1.121520996093750000e+00
1.428195738792419434e+01,3.730166196823120117e+00,-8.944737434387207031e+00,-3.715801000595092773e+00,-4.791259765625000000e+00,5.035400390625000000e-01,1.121520996093750000e+00
1.429565525054931641e+01,3.514688014984130859e+00,-8.944737434387207031e+00,-3.811568975448607954e+00,-3.921508789062500000e+00,5.035400390625000000e-01,-2.288818359375000000e-02
1.431017923355102539e+01,3.464409828186035156e+00,-9.208099365234376776e+00,-3.962403774261474609e+00,-3.707885742187500000e+00,-9.536743164062500000e-01,-2.288818359375000000e-02
1.432355237007141113e+01,3.464409828186035156e+00,-9.229647636413574219e+00,-3.962403774261474609e+00,-3.707885742187500000e+00,-9.536743164062500000e-01,1.136779785156250000e+00
1.433841109275817871e+01,3.421314239501953125e+00,-9.208099365234376776e+00,-3.744531393051147905e+00,-3.639221191406250000e+00,-4.730224609375000000e-01,1.136779785156250000e+00
1.435025048255920410e+01,3.485957622528076172e+00,-9.040505409240724433e+00,-3.435679435729980469e+00,-3.639221191406250000e+00,-4.730224609375000000e-01,9.918212890625000000e-01
1.436445283889770508e+01,3.485957622528076172e+00,-9.023746490478515625e+00,-3.435679435729980469e+00,-3.639221191406250000e+00,-4.730224609375000000e-01,9.231567382812500000e-01
1.437706136703491211e+01,3.632004022598266602e+00,-9.023746490478515625e+00,-3.773261785507202148e+00,-3.479003906250000000e+00,-3.128051757812500000e-01,6.256103515625000000e-01
1.439189910888671875e+01,3.780444383621215820e+00,-9.100360870361328125e+00,-3.773261785507202148e+00,-3.540039062500000000e+00,-1.602172851562500000e-01,3.356933593750000000e-01
1.440336680412292480e+01,3.780444383621215820e+00,-9.114726066589355469e+00,-3.773261785507202148e+00,-3.479003906250000000e+00,-1.602172851562500000e-01,3.356933593750000000e-01
1.441911029815673828e+01,3.617638826370239258e+00,-9.191340446472167969e+00,-3.897760391235352007e+00,-3.456115722656250000e+00,-1.602172851562500000e-01,3.356933593750000000e-01
1.443424940109252930e+01,3.478775024414062500e+00,-9.191340446472167969e+00,-3.897760391235352007e+00,-3.349304199218750000e+00,-5.035400390625000000e-01,7.629394531250000000e-02
