# elapsed time, f3_acc_x, f3_acc_y, f3_acc_z, f3_gyro_x, f3_gyro_y, f3_gyro_z
1.280594182014465332e+01,4.371812343597412109e+00,-9.124302864074708808e+00,-2.856282472610473633e+00,-3.555297851562500000e+00,5.111694335937500000e-01,7.171630859375000000e-01
1.282330441474914551e+01,4.283226966857910156e+00,-9.057265281677246094e+00,-2.844311475753784180e+00,-3.555297851562500000e+00,5.111694335937500000e-01,8.392333984375000000e-01
1.283389639854431152e+01,4.283226966857910156e+00,-9.057265281677246094e+00,-2.844311475753784180e+00,-3.547668457031250000e+00,-3.128051757812500000e-01,5.569458007812500000e-01
1.284805369377136230e+01,4.283226966857910156e+00,-9.059659004211425781e+00,-2.844311475753784180e+00,-3.509521484375000000e+00,-3.128051757812500000e-01,9.460449218750000000e-01
1.286280870437622070e+01,4.259284973144531250e+00,-9.062053680419921875e+00,-2.806004285812377930e+00,-3.509521484375000000e+00,-4.043579101562500000e-01,5.950927734375000000e-01
1.287515783309936523e+01,4.259284973144531250e+00,-9.062053680419921875e+00,-2.806004285812377930e+00,-3.326416015625000000e+00,-2.059936523437500000e-01,9.765625000000000000e-01
1.288668203353881836e+01,4.288015365600585938e+00,-9.030928611755372870e+00,-2.794033288955688477e+00,-3.593444824218750000e+00,3.433227539062500000e-01,6.408691406250000000e-01
1.290421152114868164e+01,4.311957359313964844e+00,-9.030928611755372870e+00,-2.794033288955688477e+00,-3.532409667968750000e+00,3.433227539062500000e-01,7.171630859375000000e-01
1.291756653785705566e+01,4.297592163085937500e+00,-9.030928611755372870e+00,-2.794033288955688477e+00,-3.746032714843750000e+00,3.356933593750000000e-01,6.561279296875000000e-01
1.292921495437622070e+01,4.316745758056640625e+00,-9.047688484191896308e+00,-2.801215887069702148e+00,-3.532409667968750000e+00,1.144409179687500000e-01,7.171630859375000000e-01
1.294668054580688477e+01,4.297592163085937500e+00,-9.057265281677246094e+00,-2.801215887069702148e+00,-3.654479980468750000e+00,4.577636718750000000e-02,6.561279296875000000e-01
1.295752787590026855e+01,4.309563159942626953e+00,-9.062053680419921875e+00,-2.734178304672241211e+00,-3.486633300781250000e+00,3.814697265625000000e-02,4.806518554687500000e-01
1.297072291374206543e+01,4.266467571258544922e+00,-9.057265281677246094e+00,-2.734178304672241211e+00,-3.654479980468750000e+00,3.814697265625000000e-02,4.806518554687500000e-01
1.298383307456970215e+01,4.259284973144531250e+00,-9.047688484191896308e+00,-2.750937700271606445e+00,-3.746032714843750000e+00,-2.365112304687500000e-01,4.806518554687500000e-01
1.299724984169006348e+01,4.259284973144531250e+00,-9.047688484191896308e+00,-2.801215887069702148e+00,-3.746032714843750000e+00,-2.365112304687500000e-01,4.882812500000000000e-01
1.300942134857177734e+01,4.331110954284667969e+00,-9.078812599182127130e+00,-2.750937700271606445e+00,-3.517150878906250000e+00,4.577636718750000000e-02,8.087158203125000000e-01
1.302603888511657715e+01,4.347870349884033203e+00,-9.081207275390623224e+00,-2.710236310958862305e+00,-3.517150878906250000e+00,2.136230468750000000e-01,8.087158203125000000e-01
1.304069590568542480e+01,4.347870349884033203e+00,-9.081207275390623224e+00,-2.710236310958862305e+00,-3.601074218750000000e+00,4.577636718750000000e-02,5.493164062500000000e-01
1.305160665512084961e+01,4.331110954284667969e+00,-9.081207275390623224e+00,-2.715024709701538086e+00,-3.601074218750000000e+00,-7.629394531250000000e-03,4.348754882812500000e-01
1.306695818901062012e+01,4.292803764343261719e+00,-9.057265281677246094e+00,-2.829946279525756836e+00,-3.593444824218750000e+00,-7.629394531250000000e-03,5.493164062500000000e-01
1.307951998710632324e+01,4.292803764343261719e+00,-9.023746490478515625e+00,-2.736572504043579102e+00,-3.593444824218750000e+00,-7.629394531250000000e-03,6.332397460937500000e-01
1.309404349327087402e+01,4.357447147369384766e+00,-9.023746490478515625e+00,-2.834734678268432617e+00,-3.631591796875000000e+00,3.814697265625000000e-02,6.561279296875000000e-01
1.310941290855407715e+01,4.357447147369384766e+00,-9.052476882934570312e+00,-2.810792684555053711e+00,-3.746032714843750000e+00,-2.593994140625000000e-01,7.781982421875000000e-01
1.312183809280395508e+01,4.326322555541992188e+00,-9.071630477905271661e+00,-2.863465070724487749e+00,-3.631591796875000000e+00,-1.754760742187500000e-01,7.781982421875000000e-01
1.313599491119384766e+01,4.295197963714599609e+00,-9.071630477905271661e+00,-2.851494073867797852e+00,-3.509521484375000000e+00,-1.754760742187500000e-01,7.781982421875000000e-01
1.314774036407470703e+01,4.261679172515869141e+00,-9.071630477905271661e+00,-2.863465070724487749e+00,-3.509521484375000000e+00,-7.629394531250000000e-02,1.251220703125000000e+00
1.316290378570556641e+01,4.261679172515869141e+00,-9.076418876647949219e+00,-2.851494073867797852e+00,-3.593444824218750000e+00,1.525878906250000000e-02,1.251220703125000000e+00
1.317500758171081543e+01,4.355052947998046875e+00,-9.071630477905271661e+00,-2.765302896499633789e+00,-3.707885742187500000e+00,-7.629394531250000000e-02,1.213073730468750000e+00
1.319052171707153320e+01,4.443638324737548828e+00,-9.071630477905271661e+00,-2.722207307815552202e+00,-3.707885742187500000e+00,-3.662109375000000000e-01,1.014709472656250000e+00
1.320247960090637207e+01,4.443638324737548828e+00,-9.071630477905271661e+00,-2.722207307815552202e+00,-3.601074218750000000e+00,-1.281738281250000000e+00,1.213073730468750000e+00
1.321726489067077637e+01,4.338293552398681641e+00,-8.999804496765136719e+00,-2.808398485183715820e+00,-3.601074218750000000e+00,-1.808166503906250000e+00,1.533508300781250000e+00
1.323235917091369629e+01,4.338293552398681641e+00,-8.925583839416503906e+00,-2.808398485183715820e+00,-3.784179687500000000e+00,-2.517700195312500000e+00,1.594543457031250000e+00
1.324526667594909668e+01,4.367023944854736328e+00,-8.925583839416503906e+00,-2.822763681411743164e+00,-4.798889160156250000e+00,-3.288269042968750000e+00,2.342224121093750000e+00
1.325852322578430176e+01,4.367023944854736328e+00,-8.951919555664062500e+00,-2.825157880783081055e+00,-4.798889160156250000e+00,-4.005432128906250000e+00,2.342224121093750000e+00
1.327098894119262695e+01,4.273650169372558594e+00,-8.951919555664062500e+00,-2.880224704742432085e+00,-4.699707031250000000e+00,-4.005432128906250000e+00,1.968383789062500000e+00
1.328690242767333984e+01,3.440467834472655806e+00,-8.951919555664062500e+00,-3.174711465835571733e+00,-4.699707031250000000e+00,-4.005432128906250000e+00,1.350402832031250000e+00
1.329786658287048340e+01,3.440467834472655806e+00,-8.942342758178710938e+00,-3.174711465835571733e+00,-4.486083984375000000e+00,-4.669189453125000000e+00,1.350402832031250000e+00
1.331281900405883789e+01,4.522646903991699219e+00,-8.911218643188476562e+00,-2.841917276382446289e+00,-5.149841308593750000e+00,-4.669189453125000000e+00,1.441955566406250000e+00
1.333099627494812012e+01,4.522646903991699219e+00,-8.911218643188476562e+00,-2.841917276382446289e+00,-4.486083984375000000e+00,-5.912780761718750000e+00,2.471923828125000000e+00
1.334214782714843750e+01,4.316745758056640625e+00,-8.911218643188476562e+00,-2.841917276382446289e+00,-4.432678222656250000e+00,-4.821777343750000000e+00,2.471923828125000000e+00
1.335468602180480957e+01,4.316745758056640625e+00,-9.165003776550291192e+00,-3.009511470794677734e+00,-4.432678222656250000e+00,-4.821777343750000000e+00,3.776550292968750000e+00
1.336945700645446777e+01,4.316745758056640625e+00,-8.932765960693359375e+00,-2.987963676452636719e+00,-4.791259765625000000e+00,-4.821777343750000000e+00,3.860473632812500000e+00
1.338243579864501953e+01,4.077325344085693359e+00,-9.093177795410156250e+00,-2.987963676452636719e+00,-4.791259765625000000e+00,-3.219604492187500000e+00,3.860473632812500000e+00
1.339365553855895996e+01,4.077325344085693359e+00,-8.935160636901855469e+00,-2.873042106628417969e+00,-4.791259765625000000e+00,-2.548217773437500000e+00,2.815246582031250000e+00
1.341143870353698730e+01,4.481945514678955078e+00,-9.062053680419921875e+00,-2.873042106628417969e+00,-4.821777343750000000e+00,-2.548217773437500000e+00,2.815246582031250000e+00
1.342327690124511719e+01,4.481945514678955078e+00,-9.040505409240724433e+00,-2.873042106628417969e+00,-5.325317382812500000e+00,-4.631042480468750000e+00,3.944396972656250000e+00
1.343565106391906738e+01,4.041412353515625000e+00,-9.040505409240724433e+00,-2.920926094055175781e+00,-4.859924316406250000e+00,-5.119323730468750000e+00,5.249023437500000000e+00
1.345350480079650879e+01,4.041412353515625000e+00,-8.980650901794433594e+00,-2.789244890213012695e+00,-5.325317382812500000e+00,-6.767272949218750000e+00,9.002685546875000000e+00
1.346452403068542480e+01,4.041412353515625000e+00,-8.980650901794433594e+00,-2.968810081481933594e+00,-5.752563476562500000e+00,-6.767272949218750000e+00,9.002685546875000000e+00
1.347909140586853027e+01,3.634398221969604936e+00,-8.978256225585937500e+00,-2.789244890213012695e+00,-6.950378417968750000e+00,-6.767272949218750000e+00,9.109497070312500000e+00
1.349817109107971191e+01,3.634398221969604936e+00,-9.047688484191896308e+00,-2.671929121017456055e+00,-6.950378417968750000e+00,-4.791259765625000000e+00,6.240844726562500000e+00
1.350874781608581543e+01,3.634398221969604936e+00,-9.198522567749023438e+00,-2.671929121017456055e+00,-6.439208984375000000e+00,-1.020050048828125000e+01,4.920959472656250000e+00
1.352052903175354004e+01,4.280832767486572266e+00,-9.198522567749023438e+00,-3.119644880294799805e+00,-4.966735839843750000e+00,-2.738952636718750000e+00,4.638671875000000000e+00
1.353445482254028320e+01,4.280832767486572266e+00,-9.203310966491699219e+00,-3.119644880294799805e+00,-6.439208984375000000e+00,-1.907348632812500000e-01,4.638671875000000000e+00
1.354758262634277344e+01,4.335899353027343750e+00,-9.203310966491699219e+00,-3.088520050048828125e+00,-4.966735839843750000e+00,2.120971679687500000e+00,1.457214355468750000e+00
1.355995440483093262e+01,4.335899353027343750e+00,-9.203310966491699219e+00,-2.971204280853271484e+00,-4.402160644531250000e+00,2.120971679687500000e+00,-5.233764648437500000e+00
1.357765769958496094e+01,4.182670116424560547e+00,-9.174580574035644531e+00,-2.971204280853271484e+00,-4.402160644531250000e+00,-8.621215820312500000e-01,-5.233764648437500000e+00
1.358735966682434082e+01,4.182670116424560547e+00,-9.174580574035644531e+00,-2.889801502227783203e+00,-5.012512207031250000e+00,-4.241943359375000000e+00,6.683349609375000000e+00
1.360259556770324707e+01,4.182670116424560547e+00,-9.148244857788085938e+00,-2.889801502227783203e+00,-5.012512207031250000e+00,-4.096984863281250000e+00,6.683349609375000000e+00
1.361541080474853516e+01,3.761290788650512695e+00,-9.205705642700195312e+00,-3.047818660736083984e+00,-5.012512207031250000e+00,-4.096984863281250000e+00,2.227783203125000000e+00
1.362849497795104980e+01,3.761290788650512695e+00,-9.148244857788085938e+00,-3.047818660736083984e+00,-4.096984863281250000e+00,-1.388549804687500000e+00,-1.449584960937500000e+00
1.364301967620849609e+01,3.873818397521972656e+00,-9.006986618041992188e+00,-3.021482467651367188e+00,-4.714965820312500000e+00,1.068115234375000000e-01,-3.097534179687500000e+00
1.365477824211120605e+01,3.974374771118164062e+00,-8.894458770751953125e+00,-3.021482467651367188e+00,-2.639770507812500000e+00,1.632690429687500000e+00,-1.449584960937500000e+00
1.366973495483398438e+01,4.007893562316895419e+00,-8.894458770751953125e+00,-3.232172250747680664e+00,-4.714965820312500000e+00,1.068115234375000000e-01,-1.365661621093750000e+00
1.368263053894042969e+01,4.261679172515869141e+00,-8.894458770751953125e+00,-3.232172250747680664e+00,-5.523681640625000000e+00,2.555847167968750000e+00,-1.365661621093750000e+00
1.369692015647888184e+01,4.587290287017822266e+00,-9.097966194152832031e+00,-3.248931646347045898e+00,-5.523681640625000000e+00,-3.280639648437500000e+00,-3.776550292968750000e+00
1.370902204513549805e+01,4.587290287017822266e+00,-8.836997985839843750e+00,-3.248931646347045898e+00,-2.998352050781250000e+00,-3.280639648437500000e+00,-3.776550292968750000e+00
1.372443532943725586e+01,4.587290287017822266e+00,-8.868123054504394531e+00,-3.248931646347045898e+00,-2.998352050781250000e+00,-3.280639648437500000e+00,4.730224609375000000e+00
1.373978781700134277e+01,3.646369218826293945e+00,-8.868123054504394531e+00,-3.186682462692260742e+00,-6.324768066406250000e+00,-1.777648925781250000e+00,4.730224609375000000e+00
1.375186204910278320e+01,3.713406801223754883e+00,-9.215282440185548651e+00,-3.169923067092895508e+00,-6.324768066406250000e+00,9.384155273437500000e-01,1.831054687500000000e-01
1.376623582839965820e+01,3.713406801223754883e+00,-9.270348548889160156e+00,-3.186682462692260742e+00,-5.973815917968750000e+00,4.287719726562500000e+00,-6.828308105468750000e+00
1.377816891670227051e+01,4.876988887786865234e+00,-9.270348548889160156e+00,-3.169923067092895508e+00,-5.058288574218750000e+00,5.874633789062500000e+00,-7.499694824218750000e+00
1.379385161399841309e+01,4.876988887786865234e+00,-9.023746490478515625e+00,-2.442085742950439453e+00,-3.280639648437500000e+00,5.874633789062500000e+00,-6.828308105468750000e+00
1.380709910392761230e+01,4.673481464385986328e+00,-8.911218643188476562e+00,-2.442085742950439453e+00,-3.280639648437500000e+00,-2.349853515625000000e+00,-1.655578613281250000e+00
1.381976842880249023e+01,4.259284973144531250e+00,-8.911218643188476562e+00,-2.659958124160766602e+00,-5.271911621093750000e+00,-2.349853515625000000e+00,-9.536743164062500000e-01
1.383629465103149414e+01,4.259284973144531250e+00,-8.911218643188476562e+00,-2.827552080154418945e+00,-5.271911621093750000e+00,-2.349853515625000000e+00,2.174377441406250000e+00
1.384763765335083008e+01,3.545812606811523438e+00,-9.349357604980468750e+00,-2.827552080154418945e+00,-5.004882812500000000e+00,-5.706787109375000000e+00,2.609252929687500000e+00
1.386241173744201660e+01,3.246537446975708008e+00,-9.464279174804687500e+00,-3.622427225112915039e+00,-3.845214843750000000e+00,-7.644653320312500000e+00,4.997253417968750000e+00
1.387488842010498047e+01,3.246537446975708008e+00,-9.464279174804687500e+00,-3.622427225112915039e+00,-3.845214843750000000e+00,-5.706787109375000000e+00,2.609252929687500000e+00
1.388961410522460938e+01,3.495534420013428178e+00,-8.930372238159179688e+00,-3.356670618057250977e+00,-3.944396972656250000e+00,-6.484985351562500000e-01,-2.784729003906250000e+00
1.390358519554138184e+01,3.495534420013428178e+00,-8.748413085937500000e+00,-3.055001258850097656e+00,-3.944396972656250000e+00,5.874633789062500000e-01,-3.448486328125000000e+00
1.391687011718750000e+01,3.390189647674560547e+00,-8.635885238647460938e+00,-2.363076925277709961e+00,3.509521484375000000e-01,5.874633789062500000e-01,-2.784729003906250000e+00
1.393144178390502930e+01,-3.758896589279174805e-01,-8.015787124633789062e+00,-2.363076925277709961e+00,3.509521484375000000e-01,-2.478790283203125000e+01,-8.033752441406250000e+00
1.394409060478210449e+01,-3.758896589279174805e-01,-8.015787124633789062e+00,2.549824714660644531e+00,-1.535034179687500000e+01,-2.478790283203125000e+01,9.010314941406250000e+00
1.396031880378723145e+01,-7.161056995391845703e+00,-8.015787124633789062e+00,1.185129880905151367e+00,-1.535034179687500000e+01,3.227233886718750000e+00,-2.751922607421875000e+01
1.397137451171875000e+01,1.008198356628417969e+01,-1.767878532409667969e+01,1.185129880905151367e+00,-1.554870605468750000e+01,3.227233886718750000e+00,9.735107421875000000e+00
1.398573088645935059e+01,7.201758384704589844e+00,-7.821856975555419922e+00,-2.671929121017456055e+00,-8.392333984375000000e+00,1.754760742187500000e+00,-7.682800292968750000e+00
1.400320172309875488e+01,7.201758384704589844e+00,-7.821856975555419922e+00,-2.671929121017456055e+00,4.035949707031250000e+00,-2.152252197265625000e+01,8.415222167968750000e+00
1.401329040527343750e+01,5.619191169738769531e+00,-7.189787387847900391e+00,-2.671929121017456055e+00,6.149291992187500000e+00,-2.346038818359375000e+01,-7.682800292968750000e+00
1.402702641487121582e+01,4.635174274444580078e+00,-7.189787387847900391e+00,-4.618414878845214844e+00,6.149291992187500000e+00,-2.346038818359375000e+01,8.415222167968750000e+00
1.404170823097229004e+01,5.619191169738769531e+00,-9.579200744628906250e+00,-4.618414878845214844e+00,-2.296447753906250000e+00,1.419067382812500000e+00,-9.063720703125000000e+00
1.405475831031799316e+01,2.750937700271606445e+00,-9.579200744628906250e+00,-2.030282974243164062e+00,-1.019287109375000000e+01,1.419067382812500000e+00,-4.951477050781250000e+00
1.406616091728210449e+01,4.218583106994628906e+00,-9.406818389892578125e+00,-2.030282974243164062e+00,-1.019287109375000000e+01,1.419067382812500000e+00,-4.951477050781250000e+00
1.408301043510437012e+01,1.774103403091430886e+00,-9.406818389892578125e+00,-2.030282974243164062e+00,-1.019287109375000000e+01,6.561279296875000000e-01,2.189636230468750000e+00
1.409389519691467285e+01,1.491587638854980469e+00,-9.406818389892578125e+00,-5.161898612976074219e+00,-9.017944335937500000e+00,8.010864257812500000e+00,2.189636230468750000e+00
1.410814523696899414e+01,1.491587638854980469e+00,-7.824251174926757812e+00,4.309562966227530045e-02,-9.017944335937500000e+00,6.501770019531250000e+01,-4.508209228515625000e+01
1.412602519989013672e+01,8.336609840393066406e+00,-4.469974517822265625e+00,5.913677811622619629e-01,-3.124237060546875000e+01,6.501770019531250000e+01,-4.508209228515625000e+01
1.413669991493225098e+01,8.336609840393066406e+00,-4.469974517822265625e+00,5.913677811622619629e-01,-3.124237060546875000e+01,2.401733398437500000e+01,1.959991455078125000e+01
1.415004229545593262e+01,2.667140722274780273e+00,-7.920019149780273438e+00,-3.632004022598266602e+00,-1.366424560546875000e+01,2.746582031250000000e-01,1.959991455078125000e+01
1.416477656364440918e+01,2.667140722274780273e+00,-9.076418876647949219e+00,-3.632004022598266602e+00,-2.586364746093750000e+00,2.105712890625000000e+00,9.651184082031250000e+00
1.417733335494995117e+01,3.600879192352294922e+00,-9.076418876647949219e+00,-2.978386878967285156e+00,7.438659667968750000e+00,2.746582031250000000e-01,-8.316040039062500000e-01
1.418818879127502441e+01,3.600879192352294922e+00,-9.076418876647949219e+00,-2.978386878967285156e+00,7.438659667968750000e+00,2.105712890625000000e+00,-1.414489746093750000e+01
1.420618081092834473e+01,2.245761156082153320e+00,-1.105642318725585938e+01,-6.495469093322753906e+00,1.000976562500000000e+01,-2.479553222656250000e+00,-1.414489746093750000e+01
1.421654343605041504e+01,2.245761156082153320e+00,-1.105642318725585938e+01,-6.495469093322753906e+00,-5.844116210937500000e+00,1.008605957031250000e+01,-1.087951660156250000e+01
1.423148417472839355e+01,5.044582843780517578e+00,-8.111555099487304688e+00,-1.924938082695007546e+00,-5.844116210937500000e+00,1.008605957031250000e+01,-1.087951660156250000e+01
1.424300265312194824e+01,5.044582843780517578e+00,-8.111555099487304688e+00,-1.924938082695007546e+00,-8.483886718750000000e+00,1.162719726562500000e+01,-6.782531738281250000e+00
1.425822353363037109e+01,4.881777286529541016e+00,-8.386888504028320312e+00,-2.932897090911864790e+00,-8.483886718750000000e+00,1.162719726562500000e+01,-1.434326171875000000e+00
1.426998829841613770e+01,3.406949043273925781e+00,-9.390058517456056464e+00,-4.122815132141113281e+00,-4.920959472656250000e+00,8.666992187500000000e+00,1.342773437500000000e+00
1.428751683235168457e+01,3.406949043273925781e+00,-9.390058517456056464e+00,-4.122815132141113281e+00,-3.173828125000000000e+00,8.666992187500000000e+00,1.342773437500000000e+00
1.430070471763610840e+01,4.216188907623291016e+00,-9.198522567749023438e+00,-3.435679435729980469e+00,-4.920959472656250000e+00,2.761840820312500000e+00,-7.453918457031250000e+00
1.431304311752319336e+01,4.462791919708251953e+00,-9.198522567749023438e+00,-3.435679435729980469e+00,1.182556152343750000e+00,1.160430908203125000e+01,-1.205444335937500000e+01
1.432746291160583496e+01,4.218583106994628906e+00,-8.377311706542968750e+00,-3.653551816940308061e+00,-3.532409667968750000e+00,4.272460937500000000e+00,-8.735656738281250000e+00
1.433960008621215820e+01,4.721365451812744141e+00,-8.640673637390136719e+00,-3.653551816940308061e+00,1.182556152343750000e+00,4.272460937500000000e+00,-8.735656738281250000e+00
1.435369610786437988e+01,4.501099109649658203e+00,-8.640673637390136719e+00,-3.129221677780151811e+00,-3.486633300781250000e+00,4.272460937500000000e+00,-6.408691406250000000e-01
1.436905932426452637e+01,4.501099109649658203e+00,-8.688557624816894531e+00,-3.129221677780151811e+00,-3.486633300781250000e+00,8.178710937500000000e+00,-6.408691406250000000e-01
1.438028240203857422e+01,4.438849925994873047e+00,-9.217676162719728339e+00,-4.436455726623535156e+00,-3.486633300781250000e+00,1.020050048828125000e+01,-4.966735839843750000e+00
1.439672565460205078e+01,3.531447410583496094e+00,-9.229647636413574219e+00,-4.436455726623535156e+00,5.264282226562500000e-01,2.001190185546875000e+01,-1.414489746093750000e+01
1.440964603424072266e+01,3.342305421829224077e+00,-9.392453193664550781e+00,-4.469974517822265625e+00,5.264282226562500000e-01,2.001190185546875000e+01,-1.414489746093750000e+01
1.442323565483093262e+01,3.531447410583496094e+00,-9.229647636413574219e+00,-4.096478939056396484e+00,-1.747131347656250000e+00,3.532409667968750000e+00,-2.281188964843750000e+00
1.443463039398193359e+01,4.829104900360107422e+00,-9.117119789123535156e+00,-3.031059265136718750e+00,-1.747131347656250000e+00,3.532409667968750000e+00,-2.281188964843750000e+00
1.445049023628234863e+01,4.829104900360107422e+00,-9.117119789123535156e+00,-3.031059265136718750e+00,-1.892089843750000000e+00,1.107788085937500000e+01,-2.281188964843750000e+00
1.446263694763183594e+01,4.601655483245849609e+00,-9.117119789123535156e+00,-3.031059265136718750e+00,-1.701354980468750000e+00,1.107788085937500000e+01,9.887695312500000000e+00
1.447653102874755859e+01,4.584896087646484375e+00,-9.909600257873535156e+00,-4.060565948486328125e+00,3.593444824218750000e+00,1.107788085937500000e+01,9.887695312500000000e+00
1.448919010162353516e+01,3.658340215682983843e+00,-9.576807022094728339e+00,-3.002328872680664062e+00,3.616333007812500000e+00,1.410675048828125000e+01,-9.735107421875000000e+00
1.450530576705932617e+01,3.658340215682983843e+00,-9.576807022094728339e+00,-3.904942989349364790e+00,3.616333007812500000e+00,1.534271240234375000e+01,-1.657867431640625000e+01
1.451587057113647461e+01,4.311957359313964844e+00,-9.562441825866699219e+00,-3.854664564132689542e+00,3.646850585937500000e+00,1.594543457031250000e+01,-1.657867431640625000e+01
1.453116798400878906e+01,4.355052947998046875e+00,-9.239224433898925781e+00,-3.854664564132689542e+00,7.926940917968750000e+00,1.534271240234375000e+01,-1.349639892578125000e+01
1.454524707794189453e+01,4.496310710906982422e+00,-8.276755332946777344e+00,-3.105279445648193359e+00,7.926940917968750000e+00,1.316070556640625000e+01,-7.621765136718750000e+00
1.455879211425781250e+01,4.355052947998046875e+00,-8.276755332946777344e+00,-3.105279445648193359e+00,6.668090820312500000e+00,1.206970214843750000e+01,-7.621765136718750000e+00
1.457307028770446777e+01,4.496310710906982422e+00,-8.434772491455078125e+00,-3.347093820571899414e+00,6.668090820312500000e+00,1.316070556640625000e+01,-1.074218750000000000e+01
1.458742427825927734e+01,4.977545261383056641e+00,-8.662221908569335938e+00,-3.701435804367065430e+00,7.156372070312500000e+00,1.712036132812500000e+01,-1.342773437500000000e+01
1.459959769248962402e+01,5.231330394744873047e+00,-8.925583839416503906e+00,-3.701435804367065430e+00,7.156372070312500000e+00,1.712036132812500000e+01,-1.342773437500000000e+01
1.461258530616760254e+01,5.231330394744873047e+00,-8.925583839416503906e+00,-2.085349559783935547e+00,2.769470214843750000e+00,3.234863281250000000e+00,-7.118225097656250000e+00
1.462980532646179199e+01,5.027823448181152344e+00,-8.925583839416503906e+00,-2.085349559783935547e+00,-2.975463867187500000e-01,1.960754394531250000e+00,-6.103515625000000000e-01
1.464008569717407227e+01,4.544194698333740234e+00,-9.011775016784667969e+00,-3.160346269607543945e+00,-2.975463867187500000e-01,1.960754394531250000e+00,-6.103515625000000000e-01
1.465436720848083496e+01,4.831499099731445312e+00,-9.011775016784667969e+00,-3.289633035659790039e+00,5.432128906250000000e+00,4.356384277343750000e+00,-7.637023925781250000e+00
1.467124152183532715e+01,4.831499099731445312e+00,-8.932765960693359375e+00,-3.160346269607543945e+00,5.432128906250000000e+00,4.356384277343750000e+00,-7.637023925781250000e+00
1.468149757385253906e+01,4.831499099731445312e+00,-8.856151580810546875e+00,-3.282450437545776367e+00,8.903503417968750000e+00,8.476257324218750000e+00,-7.888793945312500000e+00
1.469602489471435547e+01,4.618414878845214844e+00,-8.856151580810546875e+00,-2.492363929748535156e+00,8.308410644531250000e+00,1.004791259765625000e+01,-8.422851562500000000e+00
1.471021580696105957e+01,4.565742492675781250e+00,-8.856151580810546875e+00,-3.282450437545776367e+00,1.480865478515625000e+01,1.004791259765625000e+01,-8.819580078125000000e+00
1.472252464294433594e+01,4.565742492675781250e+00,-8.820239067077636719e+00,-2.815581083297729048e+00,1.592254638671875000e+01,9.819030761718750000e+00,-8.819580078125000000e+00
1.473446774482727051e+01,4.944026470184326172e+00,-8.820239067077636719e+00,-2.815581083297729048e+00,1.592254638671875000e+01,7.286071777343750000e+00,-1.663208007812500000e+00
1.475246429443359375e+01,4.944026470184326172e+00,-8.801085472106933594e+00,-2.212242364883422852e+00,1.480865478515625000e+01,-1.983642578125000000e+00,2.288818359375000000e-01
1.476388883590698242e+01,4.874594688415527344e+00,-8.669404029846191406e+00,-2.212242364883422852e+00,1.407623291015625000e+01,-1.983642578125000000e+00,2.288818359375000000e-01
1.477776408195495605e+01,4.874594688415527344e+00,-8.669404029846191406e+00,-2.889801502227783203e+00,1.407623291015625000e+01,1.640319824218750000e+00,2.288818359375000000e-01
1.479387235641479492e+01,6.821080684661865234e+00,-9.385270118713380683e+00,-5.257667064666748047e+00,2.160644531250000000e+01,1.216125488281250000e+01,-1.205444335937500000e+00
1.480442118644714355e+01,6.821080684661865234e+00,-1.090079975128173828e+01,-6.196193695068359375e+00,2.481079101562500000e+01,1.216125488281250000e+01,-1.205444335937500000e+00
1.481822371482849121e+01,5.386953830718994141e+00,-1.090079975128173828e+01,-6.196193695068359375e+00,1.418380737304687500e+02,-3.582000732421875000e+01,5.149841308593750000e+00
1.483090782165527344e+01,1.908178687095642090e+00,-4.254496574401856357e+00,-2.236184358596801758e+00,1.418380737304687500e+02,-3.582000732421875000e+01,5.149841308593750000e+00
1.484674191474914551e+01,1.908178687095642090e+00,-4.254496574401856357e+00,1.156399369239807129e+00,1.326217651367187500e+02,-3.479003906250000000e+00,-3.765106201171875000e+01
1.485807228088378906e+01,9.042900085449220526e+00,-7.050923824310302734e+00,-1.905784487724303977e+00,3.855895996093750000e+01,2.652740478515625000e+01,-5.471801757812500000e+01
1.487327384948730469e+01,1.203325748443603516e+01,-7.050923824310302734e+00,1.156399369239807129e+00,3.483581542968750000e+01,2.652740478515625000e+01,-3.765106201171875000e+01
1.488853478431701660e+01,9.042900085449220526e+00,-7.050923824310302734e+00,-1.905784487724303977e+00,3.483581542968750000e+01,-1.040649414062500000e+01,1.914978027343750000e+00
1.490006947517395020e+01,6.246472358703613281e+00,-8.298302650451660156e+00,-7.398083209991455078e-01,-1.585388183593750000e+01,-1.040649414062500000e+01,1.914978027343750000e+00
1.491615509986877441e+01,4.939238071441650391e+00,-9.217676162719728339e+00,-1.833958506584167703e+00,-1.585388183593750000e+01,-3.570556640625000000e+00,-5.630493164062500000e+00
1.492654204368591309e+01,3.725377798080443892e+00,-8.501810073852539062e+00,-7.805097699165344238e-01,-1.585388183593750000e+01,-3.570556640625000000e+00,-5.630493164062500000e+00
1.494102764129638672e+01,3.725377798080443892e+00,-8.959102630615234375e+00,-1.774103403091430886e+00,2.265930175781250000e+00,-3.570556640625000000e+00,-7.240295410156250000e+00
1.495446324348449707e+01,5.331887245178222656e+00,-8.959102630615234375e+00,-1.774103403091430886e+00,2.265930175781250000e+00,1.023864746093750000e+01,1.609802246093750000e+00
1.496856021881103516e+01,5.331887245178222656e+00,-8.959102630615234375e+00,-3.011905670166016069e+00,3.715515136718750000e+00,1.213836669921875000e+01,1.609802246093750000e+00
1.498093891143798828e+01,4.927267074584960938e+00,-9.509769439697265625e+00,-3.857058763504027876e+00,5.546569824218750000e+00,1.213836669921875000e+01,7.629394531250000000e+00
1.499647021293640137e+01,4.927267074584960938e+00,-9.509769439697265625e+00,-3.083731651306152344e+00,5.546569824218750000e+00,5.012512207031250000e+00,7.629394531250000000e+00
1.501060819625854492e+01,4.395754337310791016e+00,-9.509769439697265625e+00,-3.083731651306152344e+00,-3.707885742187500000e+00,-4.768371582031250000e+00,-2.212524414062500000e-01
1.503125596046447754e+01,5.674257755279541016e+00,-8.635885238647460938e+00,1.031900882720947266e+00,-3.707885742187500000e+00,-3.150939941406250000e+00,-2.212524414062500000e-01
1.504264092445373535e+01,4.747702121734619141e+00,-8.635885238647460938e+00,1.031900882720947266e+00,-1.686096191406250000e+00,-4.768371582031250000e+00,3.814697265625000000e-01
1.505304551124572754e+01,5.425261020660400391e+00,-9.775525093078611505e+00,-1.814804911613464355e+00,-1.556396484375000000e+00,-3.150939941406250000e+00,8.384704589843750000e+00
1.506542229652404785e+01,5.425261020660400391e+00,-9.878476142883300781e+00,-1.814804911613464355e+00,-1.686096191406250000e+00,1.010894775390625000e+01,8.384704589843750000e+00
1.507927989959716797e+01,6.260837554931640625e+00,-9.878476142883300781e+00,-1.726219415664672852e+00,-2.822875976562500000e+00,1.332855224609375000e+01,6.103515625000000000e-01
1.509311723709106445e+01,6.260837554931640625e+00,-9.878476142883300781e+00,-1.726219415664672852e+00,-2.822875976562500000e+00,1.010894775390625000e+01,-3.021240234375000000e+00
1.510682892799377441e+01,6.756437301635742188e+00,-9.555258750915527344e+00,-1.932120680809020996e+00,-3.417968750000000000e+00,8.163452148437500000e-01,-3.021240234375000000e+00
1.511885809898376465e+01,7.070077419281005859e+00,-8.604761123657226562e+00,-1.932120680809020996e+00,-3.417968750000000000e+00,8.163452148437500000e-01,4.089355468750000000e+00
1.513470101356506348e+01,7.268796443939208984e+00,-9.555258750915527344e+00,-1.932120680809020996e+00,-3.417968750000000000e+00,2.220153808593750000e+00,4.089355468750000000e+00
1.514678835868835449e+01,7.268796443939208984e+00,-8.760383605957031250e+00,-2.109291553497314453e+00,-6.469726562500000000e+00,2.220153808593750000e+00,4.089355468750000000e+00
1.516075778007507324e+01,6.066906929016113281e+00,-8.760383605957031250e+00,-2.109291553497314453e+00,-4.592895507812500000e+00,8.140563964843750000e+00,2.738952636718750000e+00
1.517558121681213379e+01,4.963180065155029297e+00,-8.760383605957031250e+00,-2.109291553497314453e+00,-1.224517822265625000e+01,-2.822875976562500000e-01,9.223937988281250000e+00
1.518849229812622070e+01,4.836287498474121094e+00,-9.916783332824708808e+00,-2.272097349166870117e+00,-6.614685058593750000e+00,5.622863769531250000e+00,-2.822875976562500000e+00
1.520419764518737793e+01,4.836287498474121094e+00,-9.916783332824708808e+00,-2.272097349166870117e+00,-6.744384765625000000e+00,1.602172851562500000e-01,3.051757812500000000e-01
1.521741151809692383e+01,4.752490520477294922e+00,-8.271966934204101562e+00,-1.568202137947082297e+00,-6.614685058593750000e+00,1.602172851562500000e-01,-2.822875976562500000e+00
1.523059749603271484e+01,4.752490520477294922e+00,-8.271966934204101562e+00,-1.568202137947082297e+00,-3.707885742187500000e+00,1.602172851562500000e-01,3.051757812500000000e-01
1.524307680130004883e+01,4.752490520477294922e+00,-8.271966934204101562e+00,-1.568202137947082297e+00,-3.707885742187500000e+00,3.204345703125000000e+00,-6.607055664062500000e+00
1.525919389724731445e+01,6.076483726501464844e+00,-9.406818389892578125e+00,-1.292868852615356445e+00,-3.707885742187500000e+00,3.204345703125000000e+00,3.433227539062500000e-01
1.526936864852905273e+01,7.259219646453857422e+00,-9.406818389892578125e+00,-1.292868852615356445e+00,-1.907348632812500000e-01,-7.621765136718750000e+00,1.711273193359375000e+01
1.528447461128234863e+01,6.076483726501464844e+00,-9.406818389892578125e+00,-3.294421434402465820e+00,-1.907348632812500000e-01,-7.621765136718750000e+00,1.711273193359375000e+01
1.530146765708923340e+01,4.402936935424804688e+00,-8.793902397155761719e+00,-3.294421434402465820e+00,-9.765625000000000000e-01,-7.019042968750000000e+00,2.082824707031250000e+00
1.531218934059143066e+01,4.402936935424804688e+00,-8.793902397155761719e+00,-2.018311977386474609e+00,-1.373291015625000000e+00,-3.967285156250000000e+00,2.082824707031250000e+00
1.532600164413452148e+01,5.923254966735839844e+00,-9.356539726257324219e+00,-2.018311977386474609e+00,-1.373291015625000000e+00,9.086608886718750000e+00,5.676269531250000000e+00
1.534059786796569824e+01,5.923254966735839844e+00,-9.356539726257324219e+00,-2.025494575500488281e+00,-1.373291015625000000e+00,-3.967285156250000000e+00,5.676269531250000000e+00
1.535273551940917969e+01,9.289502501487731934e-01,-1.207156467437743963e+01,-2.025494575500488281e+00,-5.035400390625000000e+00,1.991271972656250000e+00,6.668090820312500000e+00
1.536452150344848633e+01,-5.932831764221191406e+00,-9.710882186889648438e+00,4.285621047019957941e-01,-5.035400390625000000e+00,1.991271972656250000e+00,-1.013183593750000000e+01
1.538247704505920410e+01,9.289502501487731934e-01,-9.710882186889648438e+00,4.285621047019957941e-01,-5.035400390625000000e+00,6.416320800781250000e+00,4.325866699218750000e+00
1.539535117149353027e+01,8.113949775695800781e+00,-6.928819656372070312e+00,-1.343147158622741699e+00,-5.775451660156250000e+00,6.889343261718750000e+00,-6.050109863281250000e+00
1.540765190124511719e+01,8.113949775695800781e+00,-6.351817131042480469e+00,-1.343147158622741699e+00,-7.423400878906250000e+00,6.416320800781250000e+00,-5.935668945312500000e+00
1.542474484443664551e+01,9.612719535827636719e+00,-6.928819656372070312e+00,-1.343147158622741699e+00,-7.865905761718750000e+00,-1.116943359375000000e+01,-5.935668945312500000e+00
1.543547916412353516e+01,1.253843402862548828e+01,-8.552088737487792969e+00,-4.848258495330810547e+00,-7.865905761718750000e+00,-1.116943359375000000e+01,-3.227233886718750000e+00
1.544976878166198730e+01,1.623747634887695312e+01,-8.892065048217773438e+00,-4.848258495330810547e+00,-5.287170410156250000e+00,-3.776550292968750000e+00,1.133728027343750000e+01
1.546173739433288574e+01,1.623747634887695312e+01,-9.864110946655271661e+00,-2.145204782485961914e+00,-3.936767578125000000e+00,-3.776550292968750000e+00,1.541900634765625000e+01
1.547650575637817383e+01,4.144362926483154297e+00,-8.892065048217773438e+00,-1.965639591217041016e+00,-3.936767578125000000e+00,-4.325866699218750000e+00,1.757049560546875000e+01
1.548858571052551270e+01,4.144362926483154297e+00,-8.846574783325195312e+00,-1.599326729774475098e+00,-5.470275878906250000e+00,-4.325866699218750000e+00,1.757049560546875000e+01
1.550312376022338867e+01,4.486733913421630859e+00,-8.846574783325195312e+00,-1.910572886466979980e+00,-5.493164062500000000e+00,7.247924804687500000e-01,1.197052001953125000e+01
1.551514101028442383e+01,4.486733913421630859e+00,-9.543288230895996094e+00,-1.855506300926208496e+00,-5.714416503906250000e+00,7.247924804687500000e-01,7.179260253906250000e+00
1.553109908103942871e+01,4.261679172515869141e+00,-9.543288230895996094e+00,-1.855506300926208496e+00,-5.714416503906250000e+00,1.289367675781250000e+00,2.090454101562500000e+00
1.554565477371215820e+01,4.261679172515869141e+00,-9.117119789123535156e+00,-1.599326729774475098e+00,-4.058837890625000000e+00,1.411437988281250000e+00,-5.493164062500000000e-01
1.555718398094177246e+01,4.407725334167480469e+00,-8.784325599670410156e+00,-1.599326729774475098e+00,-3.242492675781250000e+00,1.411437988281250000e+00,-5.493164062500000000e-01
1.557254743576049805e+01,4.407725334167480469e+00,-8.784325599670410156e+00,-1.599326729774475098e+00,-4.058837890625000000e+00,3.051757812500000000e-01,3.723144531250000000e+00
1.558513545989990234e+01,3.833116769790649414e+00,-8.913612365722656250e+00,-1.508347034454345703e+00,-4.196166992187500000e+00,3.051757812500000000e-01,3.723144531250000000e+00
1.559936070442199707e+01,3.833116769790649414e+00,-9.105149269104003906e+00,-1.398213744163513184e+00,-4.196166992187500000e+00,4.425048828125000000e-01,2.960205078125000000e+00
1.561420774459838867e+01,5.319916248321533203e+00,-9.251194953918455255e+00,-1.508347034454345703e+00,-5.088806152343750000e+00,5.264282226562500000e-01,1.762390136718750000e+00
1.562634801864624023e+01,5.319916248321533203e+00,-9.363722801208496094e+00,-1.659181714057922363e+00,-4.150390625000000000e+00,5.264282226562500000e-01,1.762390136718750000e+00
1.564167499542236328e+01,5.008669853210449219e+00,-9.363722801208496094e+00,-1.726219415664672852e+00,-2.983093261718750000e+00,8.392333984375000000e-02,4.783630371093750000e+00
1.565408778190612793e+01,4.333505153656005859e+00,-9.363722801208496094e+00,-1.848323702812194824e+00,-2.983093261718750000e+00,8.392333984375000000e-02,4.783630371093750000e+00
1.566798043251037598e+01,4.333505153656005859e+00,-9.200917243957519531e+00,-1.848323702812194824e+00,-2.700805664062500000e+00,-9.384155273437500000e-01,1.449584960937500000e-01
1.568113684654235840e+01,5.023035049438476562e+00,-8.590395927429199219e+00,-1.089361786842346191e+00,-3.097534179687500000e+00,2.517700195312500000e-01,1.449584960937500000e-01
1.569587111473083496e+01,5.023035049438476562e+00,-8.590395927429199219e+00,-1.089361786842346191e+00,-4.890441894531250000e+00,-9.384155273437500000e-01,1.029968261718750000e+00
1.570662999153137207e+01,4.235342502593994141e+00,-9.363722801208496094e+00,-1.927332282066344771e+00,-4.890441894531250000e+00,-2.746582031250000000e-01,3.349304199218750000e+00
1.572294545173645020e+01,4.235342502593994141e+00,-9.392453193664550781e+00,-1.927332282066344771e+00,-3.784179687500000000e+00,-6.713867187500000000e-01,3.349304199218750000e+00
1.573700261116027832e+01,4.697423458099365234e+00,-9.531316757202148438e+00,-1.580173134803771973e+00,-3.654479980468750000e+00,-6.713867187500000000e-01,-7.476806640625000000e-01
1.574843502044677734e+01,4.924872875213623047e+00,-9.392453193664550781e+00,-1.580173134803771973e+00,-3.189086914062500000e+00,-6.713867187500000000e-01,-7.476806640625000000e-01
1.576478075981140137e+01,4.984727859497070312e+00,-9.287108421325683594e+00,-1.580173134803771973e+00,-3.189086914062500000e+00,-4.577636718750000000e-01,1.693725585937500000e+00
1.577750253677368164e+01,4.924872875213623047e+00,-9.287108421325683594e+00,-1.733402013778686301e+00,-3.189086914062500000e+00,7.858276367187500000e-01,1.968383789062500000e+00
1.579010009765625000e+01,4.388571739196777344e+00,-9.239224433898925781e+00,-1.608903527259826882e+00,-2.319335937500000000e+00,7.858276367187500000e-01,1.693725585937500000e+00
1.580730628967285156e+01,4.357447147369384766e+00,-9.239224433898925781e+00,-1.608903527259826882e+00,-2.319335937500000000e+00,-3.356933593750000000e-01,8.697509765625000000e-01
1.581819558143615723e+01,4.357447147369384766e+00,-8.913612365722656250e+00,-1.350329756736755371e+00,-3.021240234375000000e+00,-3.356933593750000000e-01,8.697509765625000000e-01
1.583323550224304199e+01,4.398148536682128906e+00,-8.913612365722656250e+00,-1.350329756736755371e+00,-3.211975097656250000e+00,-6.866455078125000000e-02,1.007080078125000000e+00
1.584714889526367188e+01,4.467580318450927734e+00,-9.270348548889160156e+00,-1.414973139762878418e+00,-4.463195800781250000e+00,-6.866455078125000000e-02,1.007080078125000000e+00
1.586004948616027832e+01,4.467580318450927734e+00,-9.270348548889160156e+00,-1.493981838226318359e+00,-3.692626953125000000e+00,-9.002685546875000000e-01,-3.967285156250000000e-01
1.587206029891967773e+01,4.656722068786621094e+00,-9.378087997436523438e+00,-1.630451321601867676e+00,-3.692626953125000000e+00,-9.002685546875000000e-01,-3.967285156250000000e-01
1.588947010040283203e+01,4.726153850555419922e+00,-9.153033256530761719e+00,-1.630451321601867676e+00,-2.639770507812500000e+00,-9.002685546875000000e-01,9.002685546875000000e-01
1.590235257148742676e+01,4.726153850555419922e+00,-8.877699851989746094e+00,-1.400607943534851074e+00,-2.639770507812500000e+00,-6.408691406250000000e-01,9.002685546875000000e-01
1.591493296623229980e+01,4.374206542968750000e+00,-8.877699851989746094e+00,-1.400607943534851074e+00,-2.975463867187500000e+00,-1.480102539062500000e+00,6.179809570312500000e-01
1.593232893943786621e+01,4.374206542968750000e+00,-9.217676162719728339e+00,-1.422155737876892090e+00,-2.983093261718750000e+00,-2.517700195312500000e-01,6.179809570312500000e-01
1.594353294372558594e+01,4.608838081359863281e+00,-9.217676162719728339e+00,-1.606509327888488770e+00,-2.983093261718750000e+00,-2.517700195312500000e-01,1.411437988281250000e+00
1.595560979843139648e+01,4.616020679473876953e+00,-9.217676162719728339e+00,-1.606509327888488770e+00,-2.983093261718750000e+00,-2.059936523437500000e-01,1.502990722656250000e+00
1.597317004203796387e+01,4.616020679473876953e+00,-9.143456459045410156e+00,-1.606509327888488770e+00,-2.677917480468750000e+00,-1.678466796875000000e-01,1.502990722656250000e+00
1.598360490798950195e+01,4.616020679473876953e+00,-9.131484985351562500e+00,-1.527500629425048828e+00,-2.677917480468750000e+00,1.602172851562500000e-01,-1.525878906250000000e-02
1.599767613410949707e+01,4.637568473815917969e+00,-9.100360870361328125e+00,-1.527500629425048828e+00,-3.784179687500000000e+00,1.602172851562500000e-01,-1.525878906250000000e-02
1.601242399215698242e+01,4.848258495330810547e+00,-8.990227699279785156e+00,-1.699883222579956055e+00,-3.784179687500000000e+00,1.983642578125000000e-01,1.068115234375000000e+00
1.602534413337707520e+01,4.848258495330810547e+00,-9.100360870361328125e+00,-1.699883222579956055e+00,-3.784179687500000000e+00,1.983642578125000000e-01,1.068115234375000000e+00
1.603790569305419922e+01,4.702211856842041016e+00,-9.208099365234376776e+00,-1.699883222579956055e+00,-3.913879394531250000e+00,3.662109375000000000e-01,5.264282226562500000e-01
1.605482578277587891e+01,4.599261283874511719e+00,-9.291896820068359375e+00,-1.750161409378051758e+00,-3.913879394531250000e+00,-7.629394531250000000e-03,5.264282226562500000e-01
