# elapsed time, f1_acc_x, f1_acc_y, f1_acc_z, f1_gyro_x, f1_gyro_y, f1_gyro_z
1.928472638130187988e+01,-4.817133903503417969e+00,-8.437166213989257812e+00,-2.571372509002685103e+00,-3.814697265625000000e+00,-9.155273437500000000e-02,8.697509765625000000e-01
1.929864931106567383e+01,-4.805162906646728516e+00,-8.441954612731933594e+00,-2.650381326675415039e+00,-3.601074218750000000e+00,-1.373291015625000000e-01,8.926391601562500000e-01
1.931083416938781738e+01,-4.805162906646728516e+00,-8.441954612731933594e+00,-2.650381326675415039e+00,-3.662109375000000000e+00,1.068115234375000000e-01,8.926391601562500000e-01
1.932652592658996582e+01,-4.805162906646728516e+00,-8.425195693969726562e+00,-2.590526103973388672e+00,-3.662109375000000000e+00,-1.373291015625000000e-01,8.926391601562500000e-01
1.934089040756225586e+01,-4.838681697845458984e+00,-8.425195693969726562e+00,-2.590526103973388672e+00,-3.875732421875000000e+00,-1.907348632812500000e-01,8.392333984375000000e-02
1.935366439819335938e+01,-4.838681697845458984e+00,-8.425195693969726562e+00,-2.693476915359497070e+00,-3.875732421875000000e+00,-2.593994140625000000e-01,1.266479492187500000e+00
1.936507463455200195e+01,-4.838681697845458984e+00,-8.425195693969726562e+00,-2.693476915359497070e+00,-3.608703613281250000e+00,-2.593994140625000000e-01,1.358032226562500000e+00
1.938268160820007324e+01,-4.879383087158203125e+00,-8.358158111572265625e+00,-2.612073898315429688e+00,-3.608703613281250000e+00,-3.051757812500000000e-02,1.358032226562500000e+00
1.939392495155334473e+01,-4.750096321105957031e+00,-8.434772491455078125e+00,-2.566584110260009766e+00,-3.845214843750000000e+00,4.577636718750000000e-02,5.264282226562500000e-01
1.940739369392395020e+01,-4.790797710418701172e+00,-8.379705429077148438e+00,-2.612073898315429688e+00,-3.845214843750000000e+00,4.577636718750000000e-02,5.264282226562500000e-01
1.942458510398864746e+01,-4.790797710418701172e+00,-8.420407295227050781e+00,-2.674323320388793945e+00,-3.692626953125000000e+00,-1.525878906250000000e-01,7.629394531250000000e-01
1.943583440780639648e+01,-4.821922302246093750e+00,-8.420407295227050781e+00,-2.674323320388793945e+00,-3.662109375000000000e+00,-1.525878906250000000e-01,8.316040039062500000e-01
1.945065689086914062e+01,-4.821922302246093750e+00,-8.427589416503906250e+00,-2.664746522903442383e+00,-3.692626953125000000e+00,5.340576171875000000e-02,8.316040039062500000e-01
1.946123075485229492e+01,-4.821922302246093750e+00,-8.441954612731933594e+00,-2.664746522903442383e+00,-3.700256347656250000e+00,5.340576171875000000e-02,7.400512695312500000e-01
1.947649955749511719e+01,-4.757278919219970703e+00,-8.427589416503906250e+00,-2.583343505859375000e+00,-3.707885742187500000e+00,-1.068115234375000000e-01,7.400512695312500000e-01
1.948795199394226074e+01,-4.757278919219970703e+00,-8.391676902770996094e+00,-2.513911724090576172e+00,-3.700256347656250000e+00,-3.051757812500000000e-01,9.307861328125000000e-01
1.950315761566162109e+01,-4.678269863128662109e+00,-8.365340232849121094e+00,-2.492363929748535156e+00,-3.700256347656250000e+00,-1.068115234375000000e-01,9.307861328125000000e-01
1.951863288879394531e+01,-4.661510467529296875e+00,-8.365340232849121094e+00,-2.492363929748535156e+00,-3.700256347656250000e+00,1.525878906250000000e-01,5.187988281250000000e-01
1.953034949302673340e+01,-4.661510467529296875e+00,-8.446743011474609375e+00,-2.559401512145996094e+00,-3.585815429687500000e+00,1.525878906250000000e-01,5.187988281250000000e-01
1.954610681533813477e+01,-4.757278919219970703e+00,-8.477868080139160156e+00,-2.595314502716064453e+00,-3.509521484375000000e+00,-1.525878906250000000e-01,6.103515625000000000e-01
1.955703687667846680e+01,-4.757278919219970703e+00,-8.446743011474609375e+00,-2.559401512145996094e+00,-3.509521484375000000e+00,-1.525878906250000000e-01,6.103515625000000000e-01
1.957207679748535156e+01,-4.757278919219970703e+00,-8.465896606445312500e+00,-2.619256734848022461e+00,-3.593444824218750000e+00,-7.629394531250000000e-02,5.111694335937500000e-01
1.958422708511352539e+01,-4.733336448669433594e+00,-8.449137687683105469e+00,-2.473210334777832031e+00,-3.952026367187500000e+00,9.918212890625000000e-02,5.111694335937500000e-01
1.959886050224304199e+01,-4.757278919219970703e+00,-8.449137687683105469e+00,-2.619256734848022461e+00,-3.593444824218750000e+00,9.918212890625000000e-02,4.730224609375000000e-01
1.961103916168212891e+01,-4.797980308532714844e+00,-8.444349288940429688e+00,-2.530671119689941406e+00,-3.852844238281250000e+00,9.918212890625000000e-02,6.561279296875000000e-01
1.962614846229553223e+01,-4.824316501617431641e+00,-8.370128631591796875e+00,-2.624045133590698242e+00,-3.578186035156250000e+00,-7.629394531250000000e-03,6.561279296875000000e-01
1.964156556129455566e+01,-4.824316501617431641e+00,-8.370128631591796875e+00,-2.624045133590698242e+00,-3.715515136718750000e+00,-7.629394531250000000e-03,8.621215820312500000e-01
1.965374660491943359e+01,-4.824316501617431641e+00,-8.461108207702636719e+00,-2.624045133590698242e+00,-3.715515136718750000e+00,-7.629394531250000000e-03,9.841918945312500000e-01
1.966844868659973145e+01,-4.790797710418701172e+00,-8.470685005187988281e+00,-2.573766708374023438e+00,-3.715515136718750000e+00,-4.577636718750000000e-02,8.621215820312500000e-01
1.967982697486877441e+01,-4.735730648040772373e+00,-8.470685005187988281e+00,-2.571372509002685103e+00,-3.593444824218750000e+00,-7.629394531250000000e-02,6.408691406250000000e-01
1.969559144973754883e+01,-4.783615112304688388e+00,-8.451531410217285156e+00,-2.573766708374023438e+00,-3.593444824218750000e+00,-1.220703125000000000e-01,5.187988281250000000e-01
1.970721244812011719e+01,-4.673481464385986328e+00,-8.451531410217285156e+00,-2.585737705230712891e+00,-3.395080566406250000e+00,-1.220703125000000000e-01,6.408691406250000000e-01
1.972258520126342773e+01,-4.690240859985351562e+00,-8.508993148803710938e+00,-2.645592927932739702e+00,-3.669738769531250000e+00,-1.220703125000000000e-01,5.798339843750000000e-01
1.973455309867858887e+01,-4.690240859985351562e+00,-8.508993148803710938e+00,-2.671929121017456055e+00,-3.532409667968750000e+00,-1.449584960937500000e-01,1.045227050781250000e+00
1.974927806854248047e+01,-4.690240859985351562e+00,-8.439560890197753906e+00,-2.671929121017456055e+00,-3.684997558593750000e+00,-1.449584960937500000e-01,1.045227050781250000e+00
1.976129794120788574e+01,-4.714182853698730469e+00,-8.415618896484375000e+00,-2.612073898315429688e+00,-3.684997558593750000e+00,-1.449584960937500000e-01,1.220703125000000000e+00
1.977796196937561035e+01,-4.714182853698730469e+00,-8.406042098999023438e+00,-2.612073898315429688e+00,-3.684997558593750000e+00,1.907348632812500000e-01,1.220703125000000000e+00
1.979120659828186035e+01,-4.826710700988769531e+00,-8.415618896484375000e+00,-2.621650934219360352e+00,-3.936767578125000000e+00,-2.288818359375000000e-01,8.163452148437500000e-01
1.980564498901367188e+01,-4.826710700988769531e+00,-8.449137687683105469e+00,-2.659958124160766602e+00,-3.677368164062500000e+00,-2.288818359375000000e-01,8.163452148437500000e-01
1.981827449798583984e+01,-4.786009311676025391e+00,-8.449137687683105469e+00,-2.659958124160766602e+00,-3.822326660156250000e+00,-2.288818359375000000e-01,7.019042968750000000e-01
1.983022928237915039e+01,-4.786009311676025391e+00,-8.422801017761230469e+00,-2.676717519760131836e+00,-3.822326660156250000e+00,3.051757812500000000e-02,7.019042968750000000e-01
1.984765434265136719e+01,-4.819528102874755859e+00,-8.382100105285644531e+00,-2.683900117874145064e+00,-3.822326660156250000e+00,3.051757812500000000e-02,7.019042968750000000e-01
1.985818529129028320e+01,-4.819528102874755859e+00,-8.422801017761230469e+00,-2.683900117874145064e+00,-3.570556640625000000e+00,0.000000000000000000e+00,7.934570312500000000e-01
1.987274575233459473e+01,-4.819528102874755859e+00,-8.382100105285644531e+00,-2.679111719131469727e+00,-3.570556640625000000e+00,-3.204345703125000000e-01,7.934570312500000000e-01
1.988964271545410156e+01,-4.829104900360107422e+00,-8.422801017761230469e+00,-2.528276920318603516e+00,-3.547668457031250000e+00,0.000000000000000000e+00,9.613037109375000000e-01
1.990125942230224609e+01,-4.829104900360107422e+00,-8.398859024047851562e+00,-2.636016130447388139e+00,-3.898620605468750000e+00,1.602172851562500000e-01,6.103515625000000000e-01
1.991374015808105469e+01,-4.829104900360107422e+00,-8.422801017761230469e+00,-2.528276920318603516e+00,-3.623962402343750000e+00,1.602172851562500000e-01,1.045227050781250000e+00
1.992866849899291992e+01,-4.829104900360107422e+00,-8.429984092712402344e+00,-2.636016130447388139e+00,-3.768920898437500000e+00,2.517700195312500000e-01,4.501342773437500000e-01
1.994193983078002930e+01,-4.896142482757568359e+00,-8.429984092712402344e+00,-2.626439332962036133e+00,-3.768920898437500000e+00,2.517700195312500000e-01,4.501342773437500000e-01
1.995285201072692871e+01,-4.896142482757568359e+00,-8.418012619018554688e+00,-2.636016130447388139e+00,-3.768920898437500000e+00,2.517700195312500000e-01,4.501342773437500000e-01
1.997059655189514160e+01,-4.771644115447998047e+00,-8.418012619018554688e+00,-2.626439332962036133e+00,-3.616333007812500000e+00,1.602172851562500000e-01,1.037597656250000000e+00
1.998099470138549805e+01,-4.769249916076660156e+00,-8.485051155090332031e+00,-2.588131904602050781e+00,-3.616333007812500000e+00,6.103515625000000000e-02,1.037597656250000000e+00
1.999569439888000488e+01,-4.771644115447998047e+00,-8.485051155090332031e+00,-2.588131904602050781e+00,-3.829956054687500000e+00,-3.890991210937500000e-01,7.934570312500000000e-01
2.001267528533935547e+01,-4.774038314819335938e+00,-8.439560890197753906e+00,-2.595314502716064453e+00,-3.913879394531250000e+00,-3.890991210937500000e-01,7.553100585937500000e-01
2.002326607704162598e+01,-4.797980308532714844e+00,-8.439560890197753906e+00,-2.624045133590698242e+00,-3.913879394531250000e+00,0.000000000000000000e+00,7.553100585937500000e-01
2.003762793540954590e+01,-4.797980308532714844e+00,-8.458714485168457031e+00,-2.631227731704711914e+00,-3.898620605468750000e+00,0.000000000000000000e+00,9.918212890625000000e-01
2.004941058158874512e+01,-4.797980308532714844e+00,-8.458714485168457031e+00,-2.671929121017456055e+00,-3.898620605468750000e+00,-2.288818359375000000e-01,9.918212890625000000e-01
2.006459236145019531e+01,-4.769249916076660156e+00,-8.425195693969726562e+00,-2.631227731704711914e+00,-3.898620605468750000e+00,-2.288818359375000000e-01,9.384155273437500000e-01
2.007652616500854492e+01,-4.707000255584716797e+00,-8.398859024047851562e+00,-2.616862297058105025e+00,-3.761291503906250000e+00,-1.678466796875000000e-01,6.103515625000000000e-01
2.009136819839477539e+01,-4.709394454956054688e+00,-8.425195693969726562e+00,-2.616862297058105025e+00,-3.738403320312500000e+00,-2.288818359375000000e-02,4.577636718750000000e-01
2.010625290870666504e+01,-4.709394454956054688e+00,-8.434772491455078125e+00,-2.655169725418090820e+00,-3.738403320312500000e+00,-2.288818359375000000e-02,6.103515625000000000e-01
2.011798858642578125e+01,-4.709394454956054688e+00,-8.434772491455078125e+00,-2.655169725418090820e+00,-3.738403320312500000e+00,-4.577636718750000000e-02,5.416870117187500000e-01
2.013352584838867188e+01,-4.642356872558593750e+00,-8.434772491455078125e+00,-2.604891300201416016e+00,-3.784179687500000000e+00,-4.577636718750000000e-02,5.416870117187500000e-01
2.014557051658630371e+01,-4.642356872558593750e+00,-8.465896606445312500e+00,-2.604891300201416016e+00,-3.929138183593750000e+00,-1.983642578125000000e-01,2.670288085937500000e-01
2.016010069847106934e+01,-4.620809078216552734e+00,-8.465896606445312500e+00,-2.595314502716064453e+00,-3.784179687500000000e+00,-6.866455078125000000e-02,2.670288085937500000e-01
2.017264008522033691e+01,-4.707000255584716797e+00,-8.439560890197753906e+00,-2.595314502716064453e+00,-3.822326660156250000e+00,-2.136230468750000000e-01,5.035400390625000000e-01
2.018686771392822266e+01,-4.707000255584716797e+00,-8.374917030334472656e+00,-2.576160907745361328e+00,-3.585815429687500000e+00,-6.866455078125000000e-02,6.790161132812500000e-01
2.019888353347778320e+01,-4.742913722991943359e+00,-8.439560890197753906e+00,-2.566584110260009766e+00,-3.585815429687500000e+00,-1.373291015625000000e-01,7.476806640625000000e-01
2.021451854705810547e+01,-4.757278919219970703e+00,-8.441954612731933594e+00,-2.552218914031982422e+00,-3.555297851562500000e+00,-1.373291015625000000e-01,7.476806640625000000e-01
2.022583675384521484e+01,-4.757278919219970703e+00,-8.441954612731933594e+00,-2.537853717803955078e+00,-3.555297851562500000e+00,-1.983642578125000000e-01,5.645751953125000000e-01
2.024188089370727539e+01,-4.757278919219970703e+00,-8.427589416503906250e+00,-2.552218914031982422e+00,-3.646850585937500000e+00,-2.441406250000000000e-01,5.645751953125000000e-01
2.025665950775146484e+01,-4.735730648040772373e+00,-8.425195693969726562e+00,-2.557007312774658203e+00,-3.669738769531250000e+00,-1.983642578125000000e-01,6.866455078125000000e-01
2.026877450942993164e+01,-4.735730648040772373e+00,-8.427589416503906250e+00,-2.578555107116699219e+00,-3.646850585937500000e+00,1.144409179687500000e-01,8.087158203125000000e-01
2.028333044052124023e+01,-4.774038314819335938e+00,-8.432377815246582031e+00,-2.578555107116699219e+00,-3.875732421875000000e+00,1.144409179687500000e-01,8.087158203125000000e-01
2.029477500915527344e+01,-4.774038314819335938e+00,-8.432377815246582031e+00,-2.595314502716064453e+00,-3.753662109375000000e+00,-5.340576171875000000e-02,8.087158203125000000e-01
2.031041336059570312e+01,-4.740519523620605469e+00,-8.432377815246582031e+00,-2.595314502716064453e+00,-3.791809082031250000e+00,-2.822875976562500000e-01,9.841918945312500000e-01
2.032189393043518066e+01,-4.661510467529296875e+00,-8.437166213989257812e+00,-2.583343505859375000e+00,-3.753662109375000000e+00,-3.051757812500000000e-01,9.841918945312500000e-01
2.033682155609130859e+01,-4.661510467529296875e+00,-8.437166213989257812e+00,-2.583343505859375000e+00,-3.578186035156250000e+00,-2.822875976562500000e-01,9.078979492187500000e-01
2.034943866729736328e+01,-4.738124847412109375e+00,-8.415618896484375000e+00,-2.588131904602050781e+00,-3.578186035156250000e+00,-2.212524414062500000e-01,1.296997070312500000e-01
2.036431431770324707e+01,-4.745307922363281250e+00,-8.415618896484375000e+00,-2.588131904602050781e+00,-3.578186035156250000e+00,7.629394531250000000e-02,1.296997070312500000e-01
2.037945556640625000e+01,-4.745307922363281250e+00,-8.413224220275878906e+00,-2.588131904602050781e+00,-3.883361816406250000e+00,-2.212524414062500000e-01,3.509521484375000000e-01
2.039079165458679199e+01,-4.745307922363281250e+00,-8.482656478881835938e+00,-2.640804529190063477e+00,-3.883361816406250000e+00,-3.585815429687500000e-01,5.111694335937500000e-01
2.040609550476074219e+01,-4.757278919219970703e+00,-8.482656478881835938e+00,-2.640804529190063477e+00,-3.883361816406250000e+00,-3.585815429687500000e-01,5.493164062500000000e-01
2.041797447204589844e+01,-4.800374507904052734e+00,-8.482656478881835938e+00,-2.640804529190063477e+00,-3.776550292968750000e+00,-1.373291015625000000e-01,6.790161132812500000e-01
2.043628811836242676e+01,-4.843470096588134766e+00,-8.504204750061035156e+00,-2.628833532333374023e+00,-3.776550292968750000e+00,1.831054687500000000e-01,7.858276367187500000e-01
2.044699287414550781e+01,-4.843470096588134766e+00,-8.444349288940429688e+00,-2.640804529190063477e+00,-3.776550292968750000e+00,1.831054687500000000e-01,6.790161132812500000e-01
2.045976233482360840e+01,-4.747702121734619141e+00,-8.480262756347656250e+00,-2.628833532333374023e+00,-3.723144531250000000e+00,-6.256103515625000000e-01,7.858276367187500000e-01
2.047757887840270996e+01,-4.747702121734619141e+00,-8.439560890197753906e+00,-2.621650934219360352e+00,-3.570556640625000000e+00,-6.256103515625000000e-01,8.163452148437500000e-01
2.048701310157775879e+01,-4.805162906646728516e+00,-8.374917030334472656e+00,-2.619256734848022461e+00,-3.547668457031250000e+00,-3.585815429687500000e-01,8.239746093750000000e-01
2.050284981727600098e+01,-4.805162906646728516e+00,-8.374917030334472656e+00,-2.588131904602050781e+00,-3.547668457031250000e+00,-1.754760742187500000e-01,8.163452148437500000e-01
2.051656341552734375e+01,-4.716577053070068359e+00,-8.406042098999023438e+00,-2.588131904602050781e+00,-3.829956054687500000e+00,3.051757812500000000e-02,8.239746093750000000e-01
2.052966451644897461e+01,-4.716577053070068359e+00,-8.410830497741699219e+00,-2.588131904602050781e+00,-3.829956054687500000e+00,-1.754760742187500000e-01,8.544921875000000000e-01
2.054198551177978516e+01,-4.728548049926757812e+00,-8.446743011474609375e+00,-2.561795711517333984e+00,-3.578186035156250000e+00,-7.629394531250000000e-03,8.621215820312500000e-01
2.055856752395629883e+01,-4.733336448669433594e+00,-8.451531410217285156e+00,-2.561795711517333984e+00,-3.578186035156250000e+00,-2.212524414062500000e-01,8.621215820312500000e-01
2.057097887992858887e+01,-4.769249916076660156e+00,-8.446743011474609375e+00,-2.590526103973388672e+00,-3.845214843750000000e+00,-7.629394531250000000e-03,6.637573242187500000e-01
2.058357238769531250e+01,-4.867412090301513672e+00,-8.446743011474609375e+00,-2.664746522903442383e+00,-3.868103027343750000e+00,2.136230468750000000e-01,4.653930664062500000e-01
2.060053992271423340e+01,-4.867412090301513672e+00,-8.446743011474609375e+00,-2.691082715988159180e+00,-3.845214843750000000e+00,2.136230468750000000e-01,4.653930664062500000e-01
2.061097478866577148e+01,-4.805162906646728516e+00,-8.446743011474609375e+00,-2.664746522903442383e+00,-3.555297851562500000e+00,2.136230468750000000e-01,4.653930664062500000e-01
2.062537407875061035e+01,-4.745307922363281250e+00,-8.429984092712402344e+00,-2.659958124160766602e+00,-3.555297851562500000e+00,-1.144409179687500000e-01,6.790161132812500000e-01
2.063964390754699707e+01,-4.738124847412109375e+00,-8.413224220275878906e+00,-2.573766708374023438e+00,-3.654479980468750000e+00,-1.144409179687500000e-01,8.773803710937500000e-01
2.065291452407836914e+01,-4.738124847412109375e+00,-8.425195693969726562e+00,-2.573766708374023438e+00,-3.715515136718750000e+00,-1.144409179687500000e-01,8.773803710937500000e-01
2.066786098480224609e+01,-4.786009311676025391e+00,-8.425195693969726562e+00,-2.592920303344726562e+00,-3.715515136718750000e+00,2.059936523437500000e-01,7.324218750000000000e-01
2.067963004112243652e+01,-4.788403511047363281e+00,-8.429984092712402344e+00,-2.604891300201416016e+00,-3.807067871093750000e+00,2.670288085937500000e-01,7.324218750000000000e-01
2.069452810287475586e+01,-4.786009311676025391e+00,-8.449137687683105469e+00,-2.604891300201416016e+00,-3.684997558593750000e+00,2.059936523437500000e-01,7.476806640625000000e-01
2.070709753036499023e+01,-4.697423458099365234e+00,-8.492233276367187500e+00,-2.554613113403320312e+00,-3.807067871093750000e+00,0.000000000000000000e+00,7.476806640625000000e-01
2.072124195098876953e+01,-4.697423458099365234e+00,-8.492233276367187500e+00,-2.554613113403320312e+00,-3.791809082031250000e+00,-1.220703125000000000e-01,6.027221679687500000e-01
2.073651909828186035e+01,-4.841075897216796875e+00,-8.410830497741699219e+00,-2.604891300201416016e+00,-3.791809082031250000e+00,-1.220703125000000000e-01,2.670288085937500000e-01
2.105149841308593750e+01,-4.841075897216796875e+00,-8.410830497741699219e+00,-2.604891300201416016e+00,-3.791809082031250000e+00,-1.220703125000000000e-01,2.670288085937500000e-01
2.126415824890136719e+01,-4.776432514190673828e+00,-8.422801017761230469e+00,-2.604891300201416016e+00,-3.791809082031250000e+00,-1.220703125000000000e-01,3.738403320312500000e-01
2.127945160865783691e+01,-4.762067317962647373e+00,-8.422801017761230469e+00,-2.602497100830078125e+00,-3.784179687500000000e+00,-1.754760742187500000e-01,4.196166992187500000e-01
2.129112887382507324e+01,-4.762067317962647373e+00,-8.370128631591796875e+00,-2.647987127304077148e+00,-3.738403320312500000e+00,-1.754760742187500000e-01,4.196166992187500000e-01
2.130660247802734375e+01,-4.762067317962647373e+00,-8.370128631591796875e+00,-2.530671119689941406e+00,-3.738403320312500000e+00,-5.035400390625000000e-01,1.396179199218750000e+00
2.131854796409606934e+01,-4.764461517333984375e+00,-8.480262756347656250e+00,-2.552218914031982422e+00,-3.768920898437500000e+00,-1.525878906250000000e-01,1.396179199218750000e+00
2.133351087570190430e+01,-4.742913722991943359e+00,-8.480262756347656250e+00,-2.552218914031982422e+00,-3.768920898437500000e+00,1.220703125000000000e-01,4.577636718750000000e-02
2.134770369529724121e+01,-4.802768707275390625e+00,-8.444349288940429688e+00,-2.621650934219360352e+00,-3.715515136718750000e+00,1.220703125000000000e-01,4.577636718750000000e-02
2.135978889465332031e+01,-4.757278919219970703e+00,-8.432377815246582031e+00,-2.621650934219360352e+00,-3.715515136718750000e+00,-8.392333984375000000e-02,7.553100585937500000e-01
2.137565994262695312e+01,-4.757278919219970703e+00,-8.444349288940429688e+00,-2.607285499572753906e+00,-3.761291503906250000e+00,-8.392333984375000000e-02,7.553100585937500000e-01
2.138748931884765625e+01,-4.757278919219970703e+00,-8.470685005187988281e+00,-2.559401512145996094e+00,-3.837585449218750000e+00,-8.392333984375000000e-02,1.235961914062500000e+00
2.140209722518920898e+01,-4.735730648040772373e+00,-8.470685005187988281e+00,-2.607285499572753906e+00,-3.761291503906250000e+00,-9.155273437500000000e-02,9.231567382812500000e-01
2.141439771652221680e+01,-4.728548049926757812e+00,-8.415618896484375000e+00,-2.559401512145996094e+00,-4.196166992187500000e+00,-1.449584960937500000e-01,9.231567382812500000e-01
2.142887687683105469e+01,-4.728548049926757812e+00,-8.415618896484375000e+00,-2.676717519760131836e+00,-3.913879394531250000e+00,-9.155273437500000000e-02,9.231567382812500000e-01
2.144428420066833496e+01,-4.728548049926757812e+00,-8.434772491455078125e+00,-2.659958124160766602e+00,-3.913879394531250000e+00,2.441406250000000000e-01,8.544921875000000000e-01
2.145576620101928711e+01,-4.881777286529541016e+00,-8.434772491455078125e+00,-2.659958124160766602e+00,-3.715515136718750000e+00,2.441406250000000000e-01,8.544921875000000000e-01
2.147126793861389160e+01,-4.872200489044189453e+00,-8.434772491455078125e+00,-2.659958124160766602e+00,-3.662109375000000000e+00,3.814697265625000000e-01,7.553100585937500000e-01
2.148353624343872070e+01,-4.872200489044189453e+00,-8.441954612731933594e+00,-2.602497100830078125e+00,-3.662109375000000000e+00,1.525878906250000000e-02,5.569458007812500000e-01
2.149842762947082520e+01,-4.733336448669433594e+00,-8.489839553833007812e+00,-2.614468097686768022e+00,-3.890991210937500000e+00,1.525878906250000000e-02,5.569458007812500000e-01
2.151072049140930176e+01,-4.733336448669433594e+00,-8.441954612731933594e+00,-2.614468097686768022e+00,-3.890991210937500000e+00,1.525878906250000000e-02,1.983642578125000000e-01
2.152502179145812988e+01,-4.750096321105957031e+00,-8.348581314086914062e+00,-2.647987127304077148e+00,-3.890991210937500000e+00,-1.754760742187500000e-01,5.950927734375000000e-01
2.153994870185852051e+01,-4.805162906646728516e+00,-8.348581314086914062e+00,-2.647987127304077148e+00,-3.883361816406250000e+00,3.814697265625000000e-01,1.983642578125000000e-01
2.155211710929870605e+01,-4.750096321105957031e+00,-8.348581314086914062e+00,-2.643198728561401367e+00,-3.822326660156250000e+00,-8.392333984375000000e-02,5.950927734375000000e-01
2.156959080696105957e+01,-4.716577053070068359e+00,-8.432377815246582031e+00,-2.643198728561401367e+00,-3.822326660156250000e+00,-8.392333984375000000e-02,1.129150390625000000e+00
2.158141541481018066e+01,-4.635174274444580078e+00,-8.439560890197753906e+00,-2.549824714660644531e+00,-3.997802734375000000e+00,-5.035400390625000000e-01,1.136779785156250000e+00
2.159429049491882324e+01,-4.635174274444580078e+00,-8.432377815246582031e+00,-2.659958124160766602e+00,-3.997802734375000000e+00,-5.340576171875000000e-01,1.136779785156250000e+00
2.160873103141784668e+01,-4.680664062500000000e+00,-8.410830497741699219e+00,-2.528276920318603516e+00,-3.852844238281250000e+00,-9.384155273437500000e-01,1.167297363281250000e+00
2.162109971046447754e+01,-4.707000255584716797e+00,-8.410830497741699219e+00,-2.657563924789428711e+00,-3.707885742187500000e+00,-5.340576171875000000e-01,1.052856445312500000e+00
2.163298153877258301e+01,-4.707000255584716797e+00,-8.410830497741699219e+00,-2.657563924789428711e+00,-3.707885742187500000e+00,-2.670288085937500000e-01,8.773803710937500000e-01
2.165068650245666504e+01,-4.745307922363281250e+00,-8.437166213989257812e+00,-2.657563924789428711e+00,-3.707885742187500000e+00,-1.754760742187500000e-01,8.773803710937500000e-01
2.166388440132141113e+01,-4.745307922363281250e+00,-8.389282226562500000e+00,-2.580949306488037109e+00,-3.791809082031250000e+00,-1.754760742187500000e-01,8.773803710937500000e-01
2.167478942871093750e+01,-4.812345504760742188e+00,-8.439560890197753906e+00,-2.573766708374023438e+00,-3.669738769531250000e+00,3.128051757812500000e-01,6.332397460937500000e-01
2.169249200820922852e+01,-4.867412090301513672e+00,-8.379705429077148438e+00,-2.561795711517333984e+00,-3.791809082031250000e+00,3.128051757812500000e-01,3.890991210937500000e-01
2.170246124267578125e+01,-4.884171485900878906e+00,-8.379705429077148438e+00,-2.573766708374023438e+00,-3.753662109375000000e+00,1.220703125000000000e-01,3.890991210937500000e-01
2.171668767929077148e+01,-4.884171485900878906e+00,-8.379705429077148438e+00,-2.561795711517333984e+00,-3.753662109375000000e+00,-4.577636718750000000e-02,5.798339843750000000e-01
2.173448848724365234e+01,-4.826710700988769531e+00,-8.362946510314941406e+00,-2.576160907745361328e+00,-3.684997558593750000e+00,-4.577636718750000000e-02,5.798339843750000000e-01
2.174446964263916016e+01,-4.675875663757324219e+00,-8.370128631591796875e+00,-2.576160907745361328e+00,-3.684997558593750000e+00,-4.653930664062500000e-01,1.075744628906250000e+00
2.175878310203552246e+01,-4.726153850555419922e+00,-8.355763435363769531e+00,-2.607285499572753906e+00,-3.822326660156250000e+00,-3.051757812500000000e-01,6.866455078125000000e-01
2.177353262901306152e+01,-4.716577053070068359e+00,-8.370128631591796875e+00,-2.607285499572753906e+00,-3.852844238281250000e+00,-4.196166992187500000e-01,1.075744628906250000e+00
2.178686022758483887e+01,-4.726153850555419922e+00,-8.372523307800292969e+00,-2.607285499572753906e+00,-3.822326660156250000e+00,-3.051757812500000000e-01,6.866455078125000000e-01
2.179828810691833496e+01,-4.728548049926757812e+00,-8.413224220275878906e+00,-2.604891300201416016e+00,-3.494262695312500000e+00,-2.975463867187500000e-01,6.790161132812500000e-01
2.181364274024963379e+01,-4.766855716705322266e+00,-8.437166213989257812e+00,-2.604891300201416016e+00,-3.494262695312500000e+00,9.918212890625000000e-02,6.790161132812500000e-01
2.182515740394592285e+01,-4.790797710418701172e+00,-8.444349288940429688e+00,-2.604891300201416016e+00,-3.753662109375000000e+00,1.983642578125000000e-01,6.790161132812500000e-01
2.184023976325988770e+01,-4.790797710418701172e+00,-8.444349288940429688e+00,-2.571372509002685103e+00,-3.753662109375000000e+00,1.983642578125000000e-01,8.087158203125000000e-01
2.185228967666625977e+01,-4.819528102874755859e+00,-8.444349288940429688e+00,-2.518700122833251953e+00,-3.631591796875000000e+00,-8.392333984375000000e-02,7.400512695312500000e-01
2.186734676361083984e+01,-4.829104900360107422e+00,-8.391676902770996094e+00,-2.518700122833251953e+00,-3.631591796875000000e+00,-8.392333984375000000e-02,7.400512695312500000e-01
2.187873148918151855e+01,-4.836287498474121094e+00,-8.374917030334472656e+00,-2.645592927932739702e+00,-3.639221191406250000e+00,8.392333984375000000e-02,7.400512695312500000e-01
2.189380836486816406e+01,-4.836287498474121094e+00,-8.374917030334472656e+00,-2.645592927932739702e+00,-3.639221191406250000e+00,8.392333984375000000e-02,8.621215820312500000e-01
2.190966224670410156e+01,-4.862623691558837891e+00,-8.403647422790527344e+00,-2.671929121017456055e+00,-3.639221191406250000e+00,6.866455078125000000e-02,8.621215820312500000e-01
2.192122268676757812e+01,-4.802768707275390625e+00,-8.437166213989257812e+00,-2.659958124160766602e+00,-3.761291503906250000e+00,-1.068115234375000000e-01,4.425048828125000000e-01
2.193576836585998535e+01,-4.802768707275390625e+00,-8.403647422790527344e+00,-2.659958124160766602e+00,-3.852844238281250000e+00,-1.068115234375000000e-01,4.119873046875000000e-01
2.194876909255981445e+01,-4.690240859985351562e+00,-8.449137687683105469e+00,-2.626439332962036133e+00,-3.959655761718750000e+00,0.000000000000000000e+00,4.425048828125000000e-01
2.196290922164916992e+01,-4.687846660614013672e+00,-8.453926086425781250e+00,-2.595314502716064453e+00,-3.959655761718750000e+00,0.000000000000000000e+00,6.332397460937500000e-01
2.197913837432861328e+01,-4.690240859985351562e+00,-8.480262756347656250e+00,-2.595314502716064453e+00,-3.524780273437500000e+00,0.000000000000000000e+00,7.324218750000000000e-01
2.198995113372802734e+01,-4.687846660614013672e+00,-8.453926086425781250e+00,-2.533065319061279741e+00,-3.524780273437500000e+00,-3.814697265625000000e-02,7.324218750000000000e-01
2.200222396850585938e+01,-4.697423458099365234e+00,-8.374917030334472656e+00,-2.533065319061279741e+00,-3.417968750000000000e+00,3.051757812500000000e-02,7.324218750000000000e-01
2.201766109466552734e+01,-4.685452461242675781e+00,-8.374917030334472656e+00,-2.533065319061279741e+00,-3.486633300781250000e+00,-3.814697265625000000e-02,1.060485839843750000e+00
2.203270554542541504e+01,-4.649539470672607422e+00,-8.480262756347656250e+00,-2.585737705230712891e+00,-3.486633300781250000e+00,-3.128051757812500000e-01,1.136779785156250000e+00
2.204414749145507812e+01,-4.649539470672607422e+00,-8.480262756347656250e+00,-2.549824714660644531e+00,-3.501892089843750000e+00,-3.128051757812500000e-01,1.136779785156250000e+00
2.205948710441589355e+01,-4.757278919219970703e+00,-8.427589416503906250e+00,-2.621650934219360352e+00,-3.738403320312500000e+00,-1.144409179687500000e-01,6.027221679687500000e-01
2.207078909873962402e+01,-4.814739704132080078e+00,-8.334216117858886719e+00,-2.595314502716064453e+00,-3.639221191406250000e+00,-3.051757812500000000e-02,6.027221679687500000e-01
2.208613729476928711e+01,-4.814739704132080078e+00,-8.334216117858886719e+00,-2.595314502716064453e+00,-3.692626953125000000e+00,-1.144409179687500000e-01,1.129150390625000000e+00
2.209801530838012695e+01,-4.814739704132080078e+00,-8.358158111572265625e+00,-2.566584110260009766e+00,-3.639221191406250000e+00,-2.899169921875000000e-01,1.129150390625000000e+00
2.211274623870849609e+01,-4.824316501617431641e+00,-8.358158111572265625e+00,-2.566584110260009766e+00,-3.570556640625000000e+00,-2.899169921875000000e-01,1.129150390625000000e+00
2.212503266334533691e+01,-4.833893299102783203e+00,-8.453926086425781250e+00,-2.621650934219360352e+00,-3.547668457031250000e+00,-1.068115234375000000e-01,7.247924804687500000e-01
2.214011359214782715e+01,-4.824316501617431641e+00,-8.463502883911132812e+00,-2.671929121017456055e+00,-3.570556640625000000e+00,-1.068115234375000000e-01,1.083374023437500000e+00
2.215755438804626465e+01,-4.759673118591308594e+00,-8.463502883911132812e+00,-2.621650934219360352e+00,-3.570556640625000000e+00,-3.051757812500000000e-01,8.239746093750000000e-01
2.216859674453735352e+01,-4.759673118591308594e+00,-8.453926086425781250e+00,-2.607285499572753906e+00,-3.654479980468750000e+00,-3.051757812500000000e-01,8.239746093750000000e-01
2.218255949020385742e+01,-4.762067317962647373e+00,-8.453926086425781250e+00,-2.607285499572753906e+00,-3.784179687500000000e+00,-2.365112304687500000e-01,8.239746093750000000e-01
2.219663858413696289e+01,-4.762067317962647373e+00,-8.492233276367187500e+00,-2.659958124160766602e+00,-3.654479980468750000e+00,2.059936523437500000e-01,8.392333984375000000e-01
2.220918869972229004e+01,-4.714182853698730469e+00,-8.492233276367187500e+00,-2.659958124160766602e+00,-3.692626953125000000e+00,2.059936523437500000e-01,8.392333984375000000e-01
2.222152066230773926e+01,-4.714182853698730469e+00,-8.331821441650390625e+00,-2.659958124160766602e+00,-3.692626953125000000e+00,-5.187988281250000000e-01,9.307861328125000000e-01
2.223858880996704102e+01,-4.714182853698730469e+00,-8.331821441650390625e+00,-2.631227731704711914e+00,-3.692626953125000000e+00,-5.187988281250000000e-01,1.197814941406250000e+00
2.224826931953430176e+01,-4.692635059356689453e+00,-8.384493827819824219e+00,-2.564189910888671875e+00,-3.738403320312500000e+00,2.288818359375000000e-01,1.197814941406250000e+00
2.226291680335998535e+01,-4.692635059356689453e+00,-8.384493827819824219e+00,-2.564189910888671875e+00,-3.479003906250000000e+00,2.288818359375000000e-01,9.765625000000000000e-01
2.227761816978454590e+01,-4.841075897216796875e+00,-8.382100105285644531e+00,-2.616862297058105025e+00,-3.349304199218750000e+00,2.288818359375000000e-01,8.316040039062500000e-01
2.229046130180358887e+01,-4.848258495330810547e+00,-8.382100105285644531e+00,-2.650381326675415039e+00,-3.349304199218750000e+00,4.119873046875000000e-01,8.316040039062500000e-01
2.230592870712280273e+01,-4.848258495330810547e+00,-8.374917030334472656e+00,-2.650381326675415039e+00,-3.799438476562500000e+00,4.119873046875000000e-01,5.264282226562500000e-01
2.231963276863098145e+01,-4.807557106018066406e+00,-8.461108207702636719e+00,-2.573766708374023438e+00,-3.799438476562500000e+00,5.111694335937500000e-01,5.264282226562500000e-01
2.233200716972351074e+01,-4.807557106018066406e+00,-8.501810073852539062e+00,-2.573766708374023438e+00,-3.822326660156250000e+00,7.629394531250000000e-02,6.561279296875000000e-01
2.234420251846313477e+01,-4.807557106018066406e+00,-8.501810073852539062e+00,-2.542642116546630859e+00,-3.822326660156250000e+00,7.629394531250000000e-02,8.239746093750000000e-01
2.236160922050476074e+01,-4.867412090301513672e+00,-8.461108207702636719e+00,-2.645592927932739702e+00,-3.967285156250000000e+00,7.629394531250000000e-02,8.239746093750000000e-01
2.237155437469482422e+01,-4.826710700988769531e+00,-8.406042098999023438e+00,-2.647987127304077148e+00,-3.967285156250000000e+00,-4.577636718750000000e-02,8.239746093750000000e-01
2.238611459732055664e+01,-4.826710700988769531e+00,-8.391676902770996094e+00,-2.647987127304077148e+00,-3.921508789062500000e+00,4.577636718750000000e-02,7.705688476562500000e-01
2.239805603027343750e+01,-4.793191909790039062e+00,-8.379705429077148438e+00,-2.607285499572753906e+00,-3.883361816406250000e+00,-4.577636718750000000e-02,7.705688476562500000e-01
2.241311931610107422e+01,-4.793191909790039062e+00,-8.391676902770996094e+00,-2.597708702087402344e+00,-3.921508789062500000e+00,4.577636718750000000e-02,7.705688476562500000e-01
2.242831420898437500e+01,-4.793191909790039062e+00,-8.453926086425781250e+00,-2.571372509002685103e+00,-3.944396972656250000e+00,-1.525878906250000000e-01,7.476806640625000000e-01
2.244075846672058105e+01,-4.802768707275390625e+00,-8.458714485168457031e+00,-2.571372509002685103e+00,-3.944396972656250000e+00,-1.754760742187500000e-01,7.476806640625000000e-01
2.245510649681091309e+01,-4.812345504760742188e+00,-8.453926086425781250e+00,-2.576160907745361328e+00,-3.829956054687500000e+00,-1.754760742187500000e-01,3.662109375000000000e-01
2.247146010398864746e+01,-4.812345504760742188e+00,-8.425195693969726562e+00,-2.576160907745361328e+00,-3.776550292968750000e+00,-2.441406250000000000e-01,3.662109375000000000e-01
2.248209643363952637e+01,-4.812345504760742188e+00,-8.413224220275878906e+00,-2.561795711517333984e+00,-3.669738769531250000e+00,-2.441406250000000000e-01,8.010864257812500000e-01
2.249371743202209473e+01,-4.783615112304688388e+00,-8.413224220275878906e+00,-2.561795711517333984e+00,-3.776550292968750000e+00,-2.441406250000000000e-01,8.010864257812500000e-01
2.250885224342346191e+01,-4.833893299102783203e+00,-8.413224220275878906e+00,-2.619256734848022461e+00,-3.715515136718750000e+00,-2.212524414062500000e-01,7.781982421875000000e-01
2.252163100242614746e+01,-4.783615112304688388e+00,-8.449137687683105469e+00,-2.619256734848022461e+00,-3.715515136718750000e+00,-2.212524414062500000e-01,7.781982421875000000e-01
2.253597831726074219e+01,-4.692635059356689453e+00,-8.396465301513671875e+00,-2.597708702087402344e+00,-3.715515136718750000e+00,-2.517700195312500000e-01,4.653930664062500000e-01
2.255113554000854492e+01,-4.692635059356689453e+00,-8.437166213989257812e+00,-2.597708702087402344e+00,-3.837585449218750000e+00,-2.517700195312500000e-01,5.340576171875000000e-01
2.256280398368835449e+01,-4.740519523620605469e+00,-8.429984092712402344e+00,-2.573766708374023438e+00,-3.837585449218750000e+00,2.288818359375000000e-02,5.340576171875000000e-01
2.257839250564575195e+01,-4.747702121734619141e+00,-8.429984092712402344e+00,-2.655169725418090820e+00,-3.753662109375000000e+00,2.288818359375000000e-02,8.392333984375000000e-01
2.259024190902709961e+01,-4.836287498474121094e+00,-8.429984092712402344e+00,-2.633621931076049805e+00,-3.623962402343750000e+00,2.288818359375000000e-02,8.392333984375000000e-01
2.260519647598266602e+01,-4.836287498474121094e+00,-8.379705429077148438e+00,-2.633621931076049805e+00,-3.730773925781250000e+00,9.155273437500000000e-02,5.035400390625000000e-01
2.261772966384887695e+01,-4.778826713562011719e+00,-8.374917030334472656e+00,-2.578555107116699219e+00,-3.684997558593750000e+00,9.155273437500000000e-02,5.035400390625000000e-01
2.263168239593505859e+01,-4.709394454956054688e+00,-8.374917030334472656e+00,-2.571372509002685103e+00,-3.684997558593750000e+00,-4.730224609375000000e-01,6.027221679687500000e-01
2.264697575569152832e+01,-4.699817657470703125e+00,-8.298302650451660156e+00,-2.571372509002685103e+00,-3.684997558593750000e+00,-7.095336914062500000e-01,1.144409179687500000e+00
2.265887570381164551e+01,-4.709394454956054688e+00,-8.360551834106445312e+00,-2.614468097686768022e+00,-3.822326660156250000e+00,-5.187988281250000000e-01,1.144409179687500000e+00
2.267494940757751465e+01,-4.680664062500000000e+00,-8.360551834106445312e+00,-2.705447912216186523e+00,-3.822326660156250000e+00,-6.942749023437500000e-01,1.091003417968750000e+00
2.268558526039123535e+01,-4.762067317962647373e+00,-8.499416351318359375e+00,-2.705447912216186523e+00,-3.822326660156250000e+00,-5.187988281250000000e-01,6.332397460937500000e-01
2.270163154602050781e+01,-4.666298866271972656e+00,-8.499416351318359375e+00,-2.669534921646118164e+00,-3.692626953125000000e+00,-3.280639648437500000e-01,6.332397460937500000e-01
2.271294903755187988e+01,-4.735730648040772373e+00,-8.497021675109863281e+00,-2.669534921646118164e+00,-3.837585449218750000e+00,-3.280639648437500000e-01,6.484985351562500000e-01
2.272839593887329102e+01,-4.678269863128662109e+00,-8.437166213989257812e+00,-2.669534921646118164e+00,-3.692626953125000000e+00,-5.340576171875000000e-01,8.010864257812500000e-01
2.274011850357055664e+01,-4.735730648040772373e+00,-8.449137687683105469e+00,-2.619256734848022461e+00,-3.631591796875000000e+00,-5.340576171875000000e-01,8.163452148437500000e-01
2.275491356849670410e+01,-4.754884719848632812e+00,-8.449137687683105469e+00,-2.609679698944091797e+00,-3.631591796875000000e+00,-1.831054687500000000e-01,8.010864257812500000e-01
2.276758575439453125e+01,-4.754884719848632812e+00,-8.456319808959960938e+00,-2.609679698944091797e+00,-3.715515136718750000e+00,-1.831054687500000000e-01,4.959106445312500000e-01
2.278455448150634766e+01,-4.716577053070068359e+00,-8.456319808959960938e+00,-2.568978309631348100e+00,-3.715515136718750000e+00,-1.144409179687500000e-01,4.959106445312500000e-01
2.279817104339599609e+01,-4.716577053070068359e+00,-8.437166213989257812e+00,-2.636016130447388139e+00,-3.715515136718750000e+00,-1.144409179687500000e-01,4.959106445312500000e-01
2.281065011024475098e+01,-4.685452461242675781e+00,-8.425195693969726562e+00,-2.525882720947265625e+00,-3.898620605468750000e+00,-7.629394531250000000e-03,8.392333984375000000e-02
2.282669162750244141e+01,-4.692635059356689453e+00,-8.437166213989257812e+00,-2.535459518432617188e+00,-3.944396972656250000e+00,-7.629394531250000000e-03,8.392333984375000000e-02
2.283832406997680664e+01,-4.692635059356689453e+00,-8.477868080139160156e+00,-2.525882720947265625e+00,-3.898620605468750000e+00,2.670288085937500000e-01,8.087158203125000000e-01
2.285137224197387695e+01,-4.692635059356689453e+00,-8.480262756347656250e+00,-2.533065319061279741e+00,-3.570556640625000000e+00,-3.128051757812500000e-01,8.087158203125000000e-01
2.286554980278015137e+01,-4.651933670043945312e+00,-8.480262756347656250e+00,-2.497152328491210938e+00,-3.570556640625000000e+00,-2.975463867187500000e-01,4.653930664062500000e-01
2.287866687774658203e+01,-4.651933670043945312e+00,-8.480262756347656250e+00,-2.533065319061279741e+00,-3.723144531250000000e+00,-2.975463867187500000e-01,4.272460937500000000e-01
2.289012527465820312e+01,-4.651933670043945312e+00,-8.427589416503906250e+00,-2.647987127304077148e+00,-3.776550292968750000e+00,-2.975463867187500000e-01,4.119873046875000000e-01
2.290769100189208984e+01,-4.699817657470703125e+00,-8.374917030334472656e+00,-2.647987127304077148e+00,-3.723144531250000000e+00,-3.814697265625000000e-01,4.119873046875000000e-01
2.292060184478759766e+01,-4.769249916076660156e+00,-8.374917030334472656e+00,-2.647987127304077148e+00,-3.684997558593750000e+00,-3.814697265625000000e-01,7.858276367187500000e-01
2.293180203437805176e+01,-4.776432514190673828e+00,-8.374917030334472656e+00,-2.600102901458739790e+00,-3.562927246093750000e+00,-6.103515625000000000e-02,7.858276367187500000e-01
2.294962859153747559e+01,-4.776432514190673828e+00,-8.422801017761230469e+00,-2.600102901458739790e+00,-3.562927246093750000e+00,3.814697265625000000e-02,7.858276367187500000e-01
2.295937609672546387e+01,-4.888959884643554688e+00,-8.389282226562500000e+00,-2.585737705230712891e+00,-3.562927246093750000e+00,3.814697265625000000e-02,4.959106445312500000e-01
2.297404170036315918e+01,-4.867412090301513672e+00,-8.422801017761230469e+00,-2.585737705230712891e+00,-3.585815429687500000e+00,3.814697265625000000e-02,1.098632812500000000e+00
2.299156451225280762e+01,-4.867412090301513672e+00,-8.427589416503906250e+00,-2.585737705230712891e+00,-3.593444824218750000e+00,9.155273437500000000e-02,2.899169921875000000e-01
2.300213360786437988e+01,-4.805162906646728516e+00,-8.427589416503906250e+00,-2.578555107116699219e+00,-3.593444824218750000e+00,6.866455078125000000e-02,5.264282226562500000e-01
2.301583576202392578e+01,-4.805162906646728516e+00,-8.427589416503906250e+00,-2.578555107116699219e+00,-3.684997558593750000e+00,6.866455078125000000e-02,5.264282226562500000e-01
2.302870750427246094e+01,-4.821922302246093750e+00,-8.415618896484375000e+00,-2.604891300201416016e+00,-3.715515136718750000e+00,6.866455078125000000e-02,5.264282226562500000e-01
2.304312062263488770e+01,-4.821922302246093750e+00,-8.341398239135742188e+00,-2.609679698944091797e+00,-3.753662109375000000e+00,-1.220703125000000000e-01,4.882812500000000000e-01
2.305553436279296875e+01,-4.754884719848632812e+00,-8.341398239135742188e+00,-2.609679698944091797e+00,-3.753662109375000000e+00,7.629394531250000000e-02,4.882812500000000000e-01
2.306998467445373535e+01,-4.754884719848632812e+00,-8.353369712829589844e+00,-2.590526103973388672e+00,-3.753662109375000000e+00,1.525878906250000000e-01,4.882812500000000000e-01
2.308277869224548340e+01,-4.759673118591308594e+00,-8.432377815246582031e+00,-2.542642116546630859e+00,-3.768920898437500000e+00,1.525878906250000000e-01,5.569458007812500000e-01
2.309752416610717773e+01,-4.759673118591308594e+00,-8.432377815246582031e+00,-2.578555107116699219e+00,-3.768920898437500000e+00,3.051757812500000000e-02,5.569458007812500000e-01
2.310899710655212402e+01,-4.733336448669433594e+00,-8.449137687683105469e+00,-2.578555107116699219e+00,-3.829956054687500000e+00,3.051757812500000000e-02,5.569458007812500000e-01
2.312440752983093262e+01,-4.733336448669433594e+00,-8.477868080139160156e+00,-2.604891300201416016e+00,-3.646850585937500000e+00,-2.365112304687500000e-01,6.103515625000000000e-01
2.313888931274414062e+01,-4.733336448669433594e+00,-8.477868080139160156e+00,-2.604891300201416016e+00,-3.692626953125000000e+00,2.059936523437500000e-01,6.103515625000000000e-01
2.315070724487304688e+01,-4.711788654327392578e+00,-8.444349288940429688e+00,-2.609679698944091797e+00,-3.692626953125000000e+00,-1.525878906250000000e-01,6.103515625000000000e-01
2.316598868370056152e+01,-4.711788654327392578e+00,-8.437166213989257812e+00,-2.609679698944091797e+00,-3.959655761718750000e+00,2.059936523437500000e-01,2.899169921875000000e-01
2.317850327491760254e+01,-4.711788654327392578e+00,-8.444349288940429688e+00,-2.609679698944091797e+00,-3.959655761718750000e+00,-1.525878906250000000e-01,2.899169921875000000e-01
2.319365310668945312e+01,-4.730942249298095703e+00,-8.444349288940429688e+00,-2.554613113403320312e+00,-3.776550292968750000e+00,-1.220703125000000000e-01,5.264282226562500000e-01
2.320511150360107422e+01,-4.740519523620605469e+00,-8.444349288940429688e+00,-2.554613113403320312e+00,-3.662109375000000000e+00,-3.128051757812500000e-01,9.460449218750000000e-01
2.322057127952575684e+01,-4.740519523620605469e+00,-8.444349288940429688e+00,-2.554613113403320312e+00,-3.601074218750000000e+00,-1.220703125000000000e-01,7.019042968750000000e-01
2.323255729675292969e+01,-4.771644115447998047e+00,-8.401253700256347656e+00,-2.595314502716064453e+00,-3.662109375000000000e+00,-3.738403320312500000e-01,7.019042968750000000e-01
2.324691510200500488e+01,-4.850652694702148438e+00,-8.453926086425781250e+00,-2.585737705230712891e+00,-3.601074218750000000e+00,1.220703125000000000e-01,6.408691406250000000e-01
2.326224017143249512e+01,-4.850652694702148438e+00,-8.461108207702636719e+00,-2.585737705230712891e+00,-3.593444824218750000e+00,-1.525878906250000000e-02,5.722045898437500000e-01
2.327453470230102539e+01,-4.747702121734619141e+00,-8.468291282653808594e+00,-2.540247917175292969e+00,-3.593444824218750000e+00,-1.525878906250000000e-02,6.408691406250000000e-01
2.328908658027648926e+01,-4.730942249298095703e+00,-8.461108207702636719e+00,-2.540247917175292969e+00,-3.883361816406250000e+00,-1.525878906250000000e-02,5.722045898437500000e-01
2.330084896087646484e+01,-4.730942249298095703e+00,-8.396465301513671875e+00,-2.588131904602050781e+00,-3.883361816406250000e+00,-2.899169921875000000e-01,5.111694335937500000e-01
2.331670928001403809e+01,-4.730942249298095703e+00,-8.396465301513671875e+00,-2.590526103973388672e+00,-3.677368164062500000e+00,-1.144409179687500000e-01,5.111694335937500000e-01
2.332861471176147461e+01,-4.695029258728027344e+00,-8.441954612731933594e+00,-2.597708702087402344e+00,-3.677368164062500000e+00,-2.899169921875000000e-01,8.850097656250000000e-01
2.334307098388671875e+01,-4.678269863128662109e+00,-8.441954612731933594e+00,-2.597708702087402344e+00,-3.761291503906250000e+00,-2.136230468750000000e-01,8.850097656250000000e-01
2.335827088356018066e+01,-4.678269863128662109e+00,-8.441954612731933594e+00,-2.616862297058105025e+00,-3.883361816406250000e+00,-2.136230468750000000e-01,7.019042968750000000e-01
2.337055301666259766e+01,-4.709394454956054688e+00,-8.437166213989257812e+00,-2.616862297058105025e+00,-3.906250000000000000e+00,-1.144409179687500000e-01,4.119873046875000000e-01
2.338515496253967285e+01,-4.750096321105957031e+00,-8.427589416503906250e+00,-2.636016130447388139e+00,-3.906250000000000000e+00,-9.918212890625000000e-02,4.119873046875000000e-01
2.339766597747802734e+01,-4.709394454956054688e+00,-8.418012619018554688e+00,-2.573766708374023438e+00,-3.593444824218750000e+00,-9.918212890625000000e-02,8.697509765625000000e-01
2.341458988189697266e+01,-4.726153850555419922e+00,-8.427589416503906250e+00,-2.636016130447388139e+00,-3.593444824218750000e+00,-4.501342773437500000e-01,8.697509765625000000e-01
2.342495727539062500e+01,-4.707000255584716797e+00,-8.441954612731933594e+00,-2.607285499572753906e+00,-3.829956054687500000e+00,-4.501342773437500000e-01,1.083374023437500000e+00
2.343963527679443359e+01,-4.726153850555419922e+00,-8.441954612731933594e+00,-2.607285499572753906e+00,-3.829956054687500000e+00,-4.501342773437500000e-01,5.645751953125000000e-01
2.345651865005493164e+01,-4.766855716705322266e+00,-8.382100105285644531e+00,-2.595314502716064453e+00,-3.791809082031250000e+00,-1.296997070312500000e-01,9.994506835937500000e-01
2.346699690818786621e+01,-4.797980308532714844e+00,-8.382100105285644531e+00,-2.576160907745361328e+00,-3.700256347656250000e+00,-1.296997070312500000e-01,9.994506835937500000e-01
2.348080897331237793e+01,-4.881777286529541016e+00,-8.415618896484375000e+00,-2.595314502716064453e+00,-3.700256347656250000e+00,-1.144409179687500000e-01,9.994506835937500000e-01
2.349561810493469238e+01,-4.797980308532714844e+00,-8.415618896484375000e+00,-2.557007312774658203e+00,-3.700256347656250000e+00,-1.144409179687500000e-01,9.765625000000000000e-01
2.350826883316040039e+01,-4.764461517333984375e+00,-8.441954612731933594e+00,-2.583343505859375000e+00,-3.631591796875000000e+00,-3.051757812500000000e-01,8.697509765625000000e-01
2.352046060562133789e+01,-4.757278919219970703e+00,-8.384493827819824219e+00,-2.564189910888671875e+00,-3.631591796875000000e+00,-3.051757812500000000e-01,8.697509765625000000e-01
2.353747916221618652e+01,-4.728548049926757812e+00,-8.418012619018554688e+00,-2.583343505859375000e+00,-3.822326660156250000e+00,-1.144409179687500000e-01,2.441406250000000000e-01
2.354805469512939453e+01,-4.673481464385986328e+00,-8.418012619018554688e+00,-2.612073898315429688e+00,-3.822326660156250000e+00,-1.144409179687500000e-01,2.441406250000000000e-01
2.356230139732360840e+01,-4.673481464385986328e+00,-8.418012619018554688e+00,-2.619256734848022461e+00,-3.967285156250000000e+00,-3.814697265625000000e-01,8.087158203125000000e-01
2.357652139663696289e+01,-4.759673118591308594e+00,-8.439560890197753906e+00,-2.612073898315429688e+00,-3.768920898437500000e+00,-3.814697265625000000e-01,8.773803710937500000e-01
2.358863687515258789e+01,-4.778826713562011719e+00,-8.439560890197753906e+00,-2.638410329818725586e+00,-3.890991210937500000e+00,-1.068115234375000000e-01,1.014709472656250000e+00
2.360390591621398926e+01,-4.776432514190673828e+00,-8.439560890197753906e+00,-2.664746522903442383e+00,-3.753662109375000000e+00,-9.155273437500000000e-02,1.014709472656250000e+00
2.361856937408447266e+01,-4.776432514190673828e+00,-8.480262756347656250e+00,-2.674323320388793945e+00,-3.723144531250000000e+00,-1.068115234375000000e-01,1.014709472656250000e+00
2.363069486618041992e+01,-4.762067317962647373e+00,-8.458714485168457031e+00,-2.664746522903442383e+00,-3.715515136718750000e+00,1.525878906250000000e-02,4.577636718750000000e-01
2.364413189888000488e+01,-4.742913722991943359e+00,-8.458714485168457031e+00,-2.631227731704711914e+00,-3.715515136718750000e+00,-1.525878906250000000e-02,6.103515625000000000e-01
2.366078519821166992e+01,-4.742913722991943359e+00,-8.458714485168457031e+00,-2.631227731704711914e+00,-3.761291503906250000e+00,1.525878906250000000e-02,6.103515625000000000e-01
2.367142581939697266e+01,-4.762067317962647373e+00,-8.456319808959960938e+00,-2.636016130447388139e+00,-3.761291503906250000e+00,-1.525878906250000000e-02,1.106262207031250000e+00
2.368570971488952637e+01,-4.762067317962647373e+00,-8.456319808959960938e+00,-2.636016130447388139e+00,-3.730773925781250000e+00,-3.814697265625000000e-02,1.106262207031250000e+00
2.370002007484436035e+01,-4.762067317962647373e+00,-8.456319808959960938e+00,-2.564189910888671875e+00,-3.608703613281250000e+00,-1.144409179687500000e-01,1.106262207031250000e+00
2.371260809898376465e+01,-4.745307922363281250e+00,-8.415618896484375000e+00,-2.533065319061279741e+00,-3.608703613281250000e+00,-1.144409179687500000e-01,6.790161132812500000e-01
2.372727036476135254e+01,-4.793191909790039062e+00,-8.468291282653808594e+00,-2.533065319061279741e+00,-3.822326660156250000e+00,-7.629394531250000000e-03,2.517700195312500000e-01
2.373913383483886719e+01,-4.752490520477294922e+00,-8.456319808959960938e+00,-2.533065319061279741e+00,-3.822326660156250000e+00,-7.629394531250000000e-03,2.517700195312500000e-01
2.375422668457031250e+01,-4.752490520477294922e+00,-8.456319808959960938e+00,-2.597708702087402344e+00,-3.822326660156250000e+00,-2.975463867187500000e-01,6.103515625000000000e-01
2.376643753051757812e+01,-4.752490520477294922e+00,-8.453926086425781250e+00,-2.580949306488037109e+00,-3.822326660156250000e+00,-2.975463867187500000e-01,6.103515625000000000e-01
2.378176188468933105e+01,-4.786009311676025391e+00,-8.398859024047851562e+00,-2.597708702087402344e+00,-3.822326660156250000e+00,-7.629394531250000000e-02,7.781982421875000000e-01
2.379340410232543945e+01,-4.786009311676025391e+00,-8.396465301513671875e+00,-2.614468097686768022e+00,-3.715515136718750000e+00,-7.629394531250000000e-02,7.781982421875000000e-01
2.380868911743164062e+01,-4.685452461242675781e+00,-8.396465301513671875e+00,-2.614468097686768022e+00,-3.715515136718750000e+00,-2.975463867187500000e-01,7.781982421875000000e-01
2.382302522659301758e+01,-4.685452461242675781e+00,-8.410830497741699219e+00,-2.619256734848022461e+00,-3.715515136718750000e+00,-2.975463867187500000e-01,4.882812500000000000e-01
2.383503055572509766e+01,-4.735730648040772373e+00,-8.410830497741699219e+00,-2.545036315917968750e+00,-3.707885742187500000e+00,-1.449584960937500000e-01,4.882812500000000000e-01
2.385000872611999512e+01,-4.738124847412109375e+00,-8.374917030334472656e+00,-2.609679698944091797e+00,-3.707885742187500000e+00,-1.449584960937500000e-01,5.111694335937500000e-01
2.386244344711303711e+01,-4.740519523620605469e+00,-8.374917030334472656e+00,-2.602497100830078125e+00,-3.707885742187500000e+00,-1.449584960937500000e-01,8.697509765625000000e-01
2.387695169448852539e+01,-4.740519523620605469e+00,-8.413224220275878906e+00,-2.602497100830078125e+00,-3.547668457031250000e+00,-6.103515625000000000e-02,8.697509765625000000e-01
2.388971924781799316e+01,-4.702211856842041016e+00,-8.413224220275878906e+00,-2.552218914031982422e+00,-3.547668457031250000e+00,7.629394531250000000e-03,9.231567382812500000e-01
2.390480422973632812e+01,-4.702211856842041016e+00,-8.362946510314941406e+00,-2.552218914031982422e+00,-3.677368164062500000e+00,-6.103515625000000000e-02,9.231567382812500000e-01
2.391564750671386719e+01,-4.848258495330810547e+00,-8.362946510314941406e+00,-2.585737705230712891e+00,-3.677368164062500000e+00,-7.629394531250000000e-03,9.231567382812500000e-01
2.393152856826782227e+01,-4.848258495330810547e+00,-8.453926086425781250e+00,-2.643198728561401367e+00,-3.692626953125000000e+00,-3.814697265625000000e-02,9.460449218750000000e-01
2.394627261161804199e+01,-4.742913722991943359e+00,-8.458714485168457031e+00,-2.659958124160766602e+00,-3.692626953125000000e+00,-3.814697265625000000e-02,1.441955566406250000e+00
2.395754313468933105e+01,-4.742913722991943359e+00,-8.453926086425781250e+00,-2.662352323532104492e+00,-3.791809082031250000e+00,-1.678466796875000000e-01,1.441955566406250000e+00
2.397260808944702148e+01,-4.774038314819335938e+00,-8.422801017761230469e+00,-2.659958124160766602e+00,-3.799438476562500000e+00,-1.678466796875000000e-01,8.773803710937500000e-01
2.398529171943664551e+01,-4.774038314819335938e+00,-8.389282226562500000e+00,-2.616862297058105025e+00,-3.791809082031250000e+00,-1.678466796875000000e-01,4.577636718750000000e-01
2.400031542778015137e+01,-4.850652694702148438e+00,-8.324639320373535156e+00,-2.616862297058105025e+00,-3.791809082031250000e+00,8.392333984375000000e-02,3.585815429687500000e-01
2.401231074333190918e+01,-4.802768707275390625e+00,-8.324639320373535156e+00,-2.597708702087402344e+00,-3.700256347656250000e+00,-2.899169921875000000e-01,4.577636718750000000e-01
2.402756142616271973e+01,-4.802768707275390625e+00,-8.439560890197753906e+00,-2.597708702087402344e+00,-3.791809082031250000e+00,-2.822875976562500000e-01,8.697509765625000000e-01
2.404171752929687500e+01,-4.802768707275390625e+00,-8.456319808959960938e+00,-2.597708702087402344e+00,-3.723144531250000000e+00,-2.822875976562500000e-01,8.697509765625000000e-01
2.405421566963195801e+01,-4.869806289672851562e+00,-8.456319808959960938e+00,-2.619256734848022461e+00,-3.723144531250000000e+00,1.220703125000000000e-01,5.722045898437500000e-01
2.406917428970336914e+01,-4.869806289672851562e+00,-8.470685005187988281e+00,-2.619256734848022461e+00,-3.623962402343750000e+00,1.220703125000000000e-01,5.722045898437500000e-01
2.408353471755981445e+01,-4.824316501617431641e+00,-8.415618896484375000e+00,-2.557007312774658203e+00,-3.623962402343750000e+00,2.288818359375000000e-01,5.645751953125000000e-01
2.409661769866943359e+01,-4.697423458099365234e+00,-8.389282226562500000e+00,-2.557007312774658203e+00,-3.623962402343750000e+00,-2.822875976562500000e-01,6.713867187500000000e-01
2.410807371139526367e+01,-4.824316501617431641e+00,-8.389282226562500000e+00,-2.597708702087402344e+00,-3.822326660156250000e+00,2.288818359375000000e-01,-7.629394531250000000e-02
2.412560391426086426e+01,-4.817133903503417969e+00,-8.386888504028320312e+00,-2.597708702087402344e+00,-3.898620605468750000e+00,-2.517700195312500000e-01,8.087158203125000000e-01
2.413678503036499023e+01,-4.817133903503417969e+00,-8.477868080139160156e+00,-2.588131904602050781e+00,-3.898620605468750000e+00,4.348754882812500000e-01,6.561279296875000000e-01
2.415034270286560059e+01,-4.716577053070068359e+00,-8.377311706542968750e+00,-2.545036315917968750e+00,-3.898620605468750000e+00,-2.365112304687500000e-01,6.561279296875000000e-01
2.416757988929748535e+01,-4.716577053070068359e+00,-8.494627952575683594e+00,-2.545036315917968750e+00,-3.677368164062500000e+00,7.629394531250000000e-03,4.425048828125000000e-01
2.417904758453369141e+01,-4.687846660614013672e+00,-8.494627952575683594e+00,-2.528276920318603516e+00,-3.677368164062500000e+00,7.629394531250000000e-03,4.425048828125000000e-01
2.419265890121459961e+01,-4.687846660614013672e+00,-8.513781547546386719e+00,-2.571372509002685103e+00,-3.677368164062500000e+00,7.629394531250000000e-03,8.468627929687500000e-01
2.420658731460571289e+01,-4.687846660614013672e+00,-8.513781547546386719e+00,-2.571372509002685103e+00,-3.761291503906250000e+00,-2.670288085937500000e-01,8.468627929687500000e-01
2.422344851493835449e+01,-4.726153850555419922e+00,-8.374917030334472656e+00,-2.580949306488037109e+00,-3.761291503906250000e+00,-3.890991210937500000e-01,8.468627929687500000e-01
2.423477745056152344e+01,-4.728548049926757812e+00,-8.374917030334472656e+00,-2.600102901458739790e+00,-3.692626953125000000e+00,-3.890991210937500000e-01,1.037597656250000000e+00
2.424864649772644043e+01,-4.728548049926757812e+00,-8.389282226562500000e+00,-2.604891300201416016e+00,-3.646850585937500000e+00,3.814697265625000000e-02,1.251220703125000000e+00
2.426147127151489258e+01,-4.730942249298095703e+00,-8.444349288940429688e+00,-2.703053712844848633e+00,-3.562927246093750000e+00,3.814697265625000000e-02,1.037597656250000000e+00
2.427314639091491699e+01,-4.742913722991943359e+00,-8.444349288940429688e+00,-2.703053712844848633e+00,-3.562927246093750000e+00,-3.814697265625000000e-02,9.460449218750000000e-01
2.429051589965820312e+01,-4.742913722991943359e+00,-8.403647422790527344e+00,-2.703053712844848633e+00,-3.753662109375000000e+00,-3.814697265625000000e-02,7.476806640625000000e-01
2.430086970329284668e+01,-4.742913722991943359e+00,-8.398859024047851562e+00,-2.676717519760131836e+00,-3.753662109375000000e+00,-1.602172851562500000e-01,7.476806640625000000e-01
2.431492233276367188e+01,-4.771644115447998047e+00,-8.398859024047851562e+00,-2.619256734848022461e+00,-3.715515136718750000e+00,-2.212524414062500000e-01,9.155273437500000000e-01
2.433006811141967773e+01,-4.771644115447998047e+00,-8.382100105285644531e+00,-2.590526103973388672e+00,-3.616333007812500000e+00,-2.212524414062500000e-01,9.689331054687500000e-01
2.434256529808044434e+01,-4.814739704132080078e+00,-8.341398239135742188e+00,-2.590526103973388672e+00,-3.616333007812500000e+00,-3.433227539062500000e-01,9.155273437500000000e-01
2.435685420036315918e+01,-4.843470096588134766e+00,-8.341398239135742188e+00,-2.590526103973388672e+00,-3.829956054687500000e+00,-3.814697265625000000e-02,8.316040039062500000e-01
