# elapsed time, f1_acc_x, f1_acc_y, f1_acc_z, f1_gyro_x, f1_gyro_y, f1_gyro_z
3.488453841209411621e+01,-1.958456993103027566e+00,-9.794678688049316406e+00,-2.418143749237059992e-01,-3.875732421875000000e+00,4.348754882812500000e-01,7.171630859375000000e-01
3.489667057991027832e+01,-1.941697597503662109e+00,-9.794678688049316406e+00,-2.585737705230712891e-01,-3.616333007812500000e+00,-1.060485839843750000e+00,7.553100585937500000e-01
3.491194224357604980e+01,-1.905784487724303977e+00,-9.828197479248048651e+00,-2.298433631658554077e-01,-3.723144531250000000e+00,-5.111694335937500000e-01,8.621215820312500000e-01
3.492369198799133301e+01,-1.905784487724303977e+00,-9.828197479248048651e+00,-2.585737705230712891e-01,-3.257751464843750000e+00,-8.926391601562500000e-01,8.621215820312500000e-01
3.493853592872619629e+01,-1.946485996246337891e+00,-9.799467086791992188e+00,-2.298433631658554077e-01,-3.723144531250000000e+00,-5.111694335937500000e-01,5.416870117187500000e-01
3.495384550094604492e+01,-1.984793186187743919e+00,-9.758766174316406250e+00,-2.394201606512068869e-01,-3.417968750000000000e+00,-6.866455078125000000e-01,5.416870117187500000e-01
3.496521258354187012e+01,-1.996764183044433594e+00,-9.758766174316406250e+00,-1.628057062625885010e-01,-4.211425781250000000e+00,8.468627929687500000e-01,5.340576171875000000e-01
3.498068428039550781e+01,-1.984793186187743919e+00,-9.775525093078611505e+00,-2.394201606512068869e-01,-3.669738769531250000e+00,-4.577636718750000000e-02,3.814697265625000000e-01
3.499276113510131836e+01,-1.982398986816406472e+00,-9.813832283020019531e+00,-2.753331959247589111e-01,-3.669738769531250000e+00,-4.577636718750000000e-02,3.509521484375000000e-01
3.500820589065551758e+01,-1.951274394989013672e+00,-9.799467086791992188e+00,-2.753331959247589111e-01,-3.669738769531250000e+00,-4.577636718750000000e-02,3.509521484375000000e-01
3.502256774902343750e+01,-1.951274394989013672e+00,-9.799467086791992188e+00,-2.729389965534210205e-01,-3.570556640625000000e+00,-5.035400390625000000e-01,4.348754882812500000e-01
3.503414797782897949e+01,-1.948880195617676003e+00,-9.787496566772459161e+00,-1.556231081485748013e-01,-3.570556640625000000e+00,-5.187988281250000000e-01,5.264282226562500000e-01
3.505010819435119629e+01,-1.948880195617676003e+00,-9.744400978088380683e+00,-2.729389965534210205e-01,-3.318786621093750000e+00,-5.950927734375000000e-01,7.553100585937500000e-01
3.506263637542724609e+01,-1.946485996246337891e+00,-9.787496566772459161e+00,-9.337386488914489746e-02,-3.204345703125000000e+00,-7.171630859375000000e-01,9.689331054687500000e-01
3.507658815383911133e+01,-1.946485996246337891e+00,-9.744400978088380683e+00,-2.849099934101104736e-01,-3.318786621093750000e+00,-7.171630859375000000e-01,7.553100585937500000e-01
3.509106397628784180e+01,-1.939303398132323997e+00,-9.847351074218750000e+00,-1.412578970193862915e-01,-3.570556640625000000e+00,-4.730224609375000000e-01,9.078979492187500000e-01
3.510423302650451660e+01,-1.994369983673095925e+00,-9.789890289306640625e+00,-2.849099934101104736e-01,-3.921508789062500000e+00,-1.220703125000000000e-01,6.408691406250000000e-01
3.511573958396911621e+01,-1.939303398132323997e+00,-9.861716270446775567e+00,-3.327940404415130060e-01,-3.921508789062500000e+00,-1.220703125000000000e-01,5.645751953125000000e-01
3.513293027877807617e+01,-1.929726481437683105e+00,-9.789890289306640625e+00,-3.327940404415130060e-01,-3.974914550781250000e+00,4.043579101562500000e-01,5.645751953125000000e-01
3.514531040191650391e+01,-1.929726481437683105e+00,-9.742006301879884589e+00,-3.040636181831359863e-01,-3.715515136718750000e+00,-3.356933593750000000e-01,5.950927734375000000e-01
3.515770721435546875e+01,-1.941697597503662109e+00,-9.742006301879884589e+00,-2.466027736663818082e-01,-3.723144531250000000e+00,-7.629394531250000000e-03,6.256103515625000000e-01
3.517496109008789062e+01,-1.941697597503662109e+00,-9.725247383117675781e+00,-3.016694188117980957e-01,-3.715515136718750000e+00,-3.356933593750000000e-01,6.179809570312500000e-01
3.518613052368164062e+01,-1.953668594360352007e+00,-9.746794700622560370e+00,-2.466027736663818082e-01,-3.723144531250000000e+00,-7.629394531250000000e-03,7.019042968750000000e-01
3.519985532760620117e+01,-1.958456993103027566e+00,-9.746794700622560370e+00,-2.370259612798689963e-01,-3.723144531250000000e+00,3.814697265625000000e-02,6.179809570312500000e-01
3.521398138999938965e+01,-1.958456993103027566e+00,-9.746794700622560370e+00,-2.370259612798689963e-01,-3.723144531250000000e+00,3.814697265625000000e-02,7.019042968750000000e-01
3.522708559036254883e+01,-1.936909198760986328e+00,-9.782708168029783380e+00,-2.346317619085311890e-01,-3.524780273437500000e+00,-9.918212890625000000e-02,6.332397460937500000e-01
3.524125957489013672e+01,-1.936909198760986328e+00,-9.830592155456544745e+00,-2.370259612798689963e-01,-3.524780273437500000e+00,-3.814697265625000000e-01,7.019042968750000000e-01
3.525600671768188477e+01,-1.968033790588378906e+00,-9.832985877990724433e+00,-2.346317619085311890e-01,-3.623962402343750000e+00,-5.111694335937500000e-01,8.087158203125000000e-01
3.526852655410766602e+01,-1.977610588073730469e+00,-9.830592155456544745e+00,-2.274491637945174893e-01,-3.684997558593750000e+00,-5.111694335937500000e-01,8.621215820312500000e-01
3.528116059303283691e+01,-1.994369983673095925e+00,-9.801861763000488281e+00,-2.274491637945174893e-01,-3.906250000000000000e+00,2.670288085937500000e-01,8.621215820312500000e-01
3.529789280891418457e+01,-1.994369983673095925e+00,-9.797073364257812500e+00,-2.705447971820830744e-01,-3.906250000000000000e+00,2.670288085937500000e-01,6.027221679687500000e-01
3.530847668647766113e+01,-1.877054095268249290e+00,-9.801861763000488281e+00,-2.705447971820830744e-01,-3.906250000000000000e+00,2.670288085937500000e-01,6.027221679687500000e-01
3.532235646247863770e+01,-1.877054095268249290e+00,-9.806650161743164062e+00,-2.705447971820830744e-01,-4.035949707031250000e+00,7.247924804687500000e-01,6.027221679687500000e-01
3.533436059951782227e+01,-2.094926357269287109e+00,-9.806650161743164062e+00,-2.585737705230712891e-01,-4.066467285156250000e+00,7.247924804687500000e-01,4.882812500000000000e-01
3.534982848167419434e+01,-2.094926357269287109e+00,-9.713275909423828125e+00,-2.585737705230712891e-01,-4.035949707031250000e+00,-2.670288085937500000e-01,4.882812500000000000e-01
3.536137747764587402e+01,-2.025494575500488281e+00,-9.560047149658203125e+00,-2.585737705230712891e-01,-3.921508789062500000e+00,-2.670288085937500000e-01,8.544921875000000000e-01
3.537708330154418945e+01,-1.912967085838317649e+00,-9.713275909423828125e+00,-3.184288144111632746e-01,-3.898620605468750000e+00,-2.365112304687500000e-01,8.544921875000000000e-01
3.539154481887817383e+01,-2.025494575500488281e+00,-9.789890289306640625e+00,-3.256114125251770020e-01,-3.898620605468750000e+00,6.027221679687500000e-01,-4.272460937500000000e-01
3.540339636802673340e+01,-2.020706176757812500e+00,-9.801861763000488281e+00,-3.447650372982025146e-01,-3.364562988281250000e+00,6.027221679687500000e-01,-4.272460937500000000e-01
3.541947293281555176e+01,-2.020706176757812500e+00,-9.840168952941896308e+00,-3.256114125251770020e-01,-3.364562988281250000e+00,6.027221679687500000e-01,-2.059936523437500000e-01
3.543082499504089355e+01,-1.965639591217041016e+00,-9.840168952941896308e+00,-2.681505978107451837e-01,-3.692626953125000000e+00,3.967285156250000000e-01,-1.220703125000000000e-01
3.544590950012207031e+01,-1.965639591217041016e+00,-9.758766174316406250e+00,-1.651999205350875022e-01,-4.005432128906250000e+00,7.324218750000000000e-01,2.822875976562500000e-01
3.545711517333984375e+01,-2.001552581787109375e+00,-9.753977775573730469e+00,-2.681505978107451837e-01,-4.005432128906250000e+00,7.324218750000000000e-01,2.822875976562500000e-01
3.547266697883605957e+01,-2.013523578643798828e+00,-9.660603523254396308e+00,-2.801215946674346924e-01,-3.837585449218750000e+00,1.052856445312500000e+00,-6.103515625000000000e-02
3.548824977874755859e+01,-2.001552581787109375e+00,-9.660603523254396308e+00,-2.801215946674346924e-01,-3.814697265625000000e+00,1.083374023437500000e+00,-1.304626464843750000e+00
3.549997997283935547e+01,-2.169146776199340820e+00,-9.627084732055664062e+00,-3.447650372982025146e-01,-3.021240234375000000e+00,3.952026367187500000e+00,-2.624511718750000000e+00
3.551430130004882812e+01,-2.169146776199340820e+00,-9.756371498107910156e+00,-5.123591423034667969e-01,-2.555847167968750000e+00,7.644653320312500000e+00,-2.624511718750000000e+00
3.552622866630554199e+01,-2.509123325347900391e+00,-9.627084732055664062e+00,-5.123591423034667969e-01,-1.235961914062500000e+00,7.644653320312500000e+00,-6.980895996093750000e+00
3.554273772239685059e+01,-2.509123325347900391e+00,-1.006761837005615234e+01,4.548983275890350342e-02,-1.235961914062500000e+00,5.584716796875000000e+00,-4.135131835937500000e+00
3.555373096466064453e+01,-2.260126352310180664e+00,-1.006761837005615234e+01,4.548983275890350342e-02,-1.998901367187500000e+00,3.265380859375000000e+00,-4.135131835937500000e+00
3.556905364990234375e+01,-1.795651197433471680e+00,-1.013465595245361150e+01,-2.609679698944091797e-01,-3.211975097656250000e+00,3.265380859375000000e+00,-2.044677734375000000e+00
3.558070898056030273e+01,-1.795651197433471680e+00,-1.013465595245361150e+01,-2.609679698944091797e-01,-2.861022949218750000e+00,-1.525878906250000000e-01,7.629394531250000000e-02
3.559521126747131348e+01,-1.795651197433471680e+00,-9.868899345397949219e+00,-2.609679698944091797e-01,-3.211975097656250000e+00,-1.525878906250000000e-01,1.876831054687500000e+00
3.560785913467407227e+01,-1.853112101554870383e+00,-9.730035781860351562e+00,-2.633621692657470148e-01,-3.860473632812500000e+00,-3.051757812500000000e-02,1.876831054687500000e+00
3.562218117713928223e+01,-2.056619167327880859e+00,-9.708487510681152344e+00,-3.136404156684874933e-01,-3.913879394531250000e+00,2.899169921875000000e-01,8.010864257812500000e-01
3.563990926742553711e+01,-2.056619167327880859e+00,-9.607931137084959161e+00,-4.094084799289702814e-01,-3.913879394531250000e+00,2.899169921875000000e-01,3.204345703125000000e-01
3.565069723129272461e+01,-2.056619167327880859e+00,-9.598354339599609375e+00,-4.094084799289702814e-01,-2.113342285156250000e+00,1.541137695312500000e+00,-1.602172851562500000e-01
3.566464090347290039e+01,-1.884236693382263184e+00,-9.574412345886230469e+00,5.027823522686949986e-02,-1.708984375000000000e+00,1.541137695312500000e+00,-1.976013183593750000e+00
3.567897820472717285e+01,-1.735796213150024414e+00,-9.574412345886230469e+00,5.027823522686949986e-02,-1.708984375000000000e+00,3.288269042968750000e+00,-2.098083496093750000e+00
3.569201850891113281e+01,-1.735796213150024414e+00,-9.763554573059082031e+00,-4.788403399288599684e-03,-2.410888671875000000e+00,3.257751464843750000e+00,-4.051208496093750000e+00
3.570427322387695312e+01,-1.465251445770263672e+00,-9.763554573059082031e+00,-4.788403399288599684e-03,-2.410888671875000000e+00,3.257751464843750000e+00,-4.051208496093750000e+00
3.572098016738891602e+01,-2.231395959854125977e+00,-9.866504669189451349e+00,-1.867477297782897949e-01,-2.410888671875000000e+00,3.257751464843750000e+00,-3.875732421875000000e+00
3.573190093040466309e+01,-2.068590164184570312e+00,-9.746794700622560370e+00,-1.867477297782897949e-01,-2.182006835937500000e+00,3.189086914062500000e+00,-3.402709960937500000e+00
3.574570393562316895e+01,-2.068590164184570312e+00,-9.768342971801757812e+00,-3.567360341548919123e-01,-2.182006835937500000e+00,3.189086914062500000e+00,-3.402709960937500000e+00
3.575985574722290039e+01,-2.035071372985839844e+00,-9.768342971801757812e+00,-3.567360341548919123e-01,-1.602172851562500000e+00,1.853942871093750000e+00,-2.281188964843750000e+00
3.577265357971191406e+01,-2.035071372985839844e+00,-9.768342971801757812e+00,-2.394201606512059988e-02,-1.602172851562500000e+00,1.853942871093750000e+00,-1.396179199218750000e+00
3.578801798820495605e+01,-1.687912225723266602e+00,-9.756371498107910156e+00,-2.394201606512059988e-02,-1.602172851562500000e+00,1.853942871093750000e+00,-1.396179199218750000e+00
3.580206561088562012e+01,-1.546654224395751953e+00,-9.660603523254396308e+00,-2.394201606512059988e-02,-1.464843750000000000e+00,1.487731933593750000e+00,-9.689331054687500000e-01
3.581888532638549805e+01,-1.546654224395751953e+00,-9.521739959716796875e+00,-4.213795065879821777e-01,-1.464843750000000000e+00,1.487731933593750000e+00,-9.689331054687500000e-01
3.582892179489135742e+01,-1.510741233825683594e+00,-9.521739959716796875e+00,-4.596867263317108154e-01,-2.983093261718750000e+00,1.487731933593750000e+00,6.942749023437500000e-01
3.584392285346984863e+01,-1.769315004348754883e+00,-9.639056205749511719e+00,-4.596867263317108154e-01,-2.983093261718750000e+00,2.601623535156250000e+00,-2.197265625000000000e+00
3.585605859756469727e+01,-1.769315004348754883e+00,-9.725247383117675781e+00,-2.035071402788161954e-01,-2.449035644531250000e+00,1.701354980468750000e+00,-2.593994140625000000e-01
3.586903786659240723e+01,-1.769315004348754883e+00,-9.725247383117675781e+00,-1.795651316642760953e-01,-2.449035644531250000e+00,1.701354980468750000e+00,-2.593994140625000000e-01
3.588610887527465820e+01,-1.616086125373840332e+00,-9.931148529052734375e+00,-1.675941199064253928e-01,-3.120422363281250000e+00,1.701354980468750000e+00,-2.593994140625000000e-01
3.589605498313903809e+01,-1.616086125373840332e+00,-9.938330650329589844e+00,-1.675941199064253928e-01,-3.120422363281250000e+00,2.403259277343750000e+00,4.425048828125000000e-01
3.591075849533081055e+01,-1.728613615036010742e+00,-9.931148529052734375e+00,-1.292868852615355890e-01,-2.593994140625000000e+00,2.403259277343750000e+00,5.340576171875000000e-02
3.592565083503723145e+01,-1.728613615036010742e+00,-9.859322547912597656e+00,-2.011129409074783048e-01,-2.563476562500000000e+00,1.319885253906250000e+00,1.129150390625000000e+00
3.593736767768859863e+01,-1.889025092124938965e+00,-9.859322547912597656e+00,-2.777273952960968018e-01,-2.502441406250000000e+00,1.319885253906250000e+00,1.510620117187500000e+00
3.595297026634216309e+01,-1.692700624465942383e+00,-9.909600257873535156e+00,-2.777273952960968018e-01,-2.151489257812500000e+00,1.319885253906250000e+00,1.510620117187500000e+00
3.596505188941955566e+01,-1.692700624465942383e+00,-9.909600257873535156e+00,-3.256114125251770020e-01,-2.151489257812500000e+00,3.814697265625000000e-02,1.525878906250000000e+00
3.597997117042541504e+01,-1.692700624465942383e+00,-9.773131370544433594e+00,4.788403399288599684e-03,-3.936767578125000000e+00,-1.625061035156250000e+00,1.525878906250000000e+00
3.599173998832702637e+01,-1.855506300926208496e+00,-9.773131370544433594e+00,-1.292868852615355890e-01,-3.936767578125000000e+00,3.814697265625000000e-02,1.525878906250000000e+00
3.600634670257568359e+01,-2.037465572357177734e+00,-9.782708168029783380e+00,-1.292868852615355890e-01,-3.883361816406250000e+00,1.335144042968750000e+00,1.243591308593750000e+00
3.601948499679565430e+01,-1.934514999389648438e+00,-9.782708168029783380e+00,-3.711012601852416992e-01,-3.097534179687500000e+00,2.960205078125000000e+00,-9.613037109375000000e-01
3.603436517715454102e+01,-1.934514999389648438e+00,-9.832985877990724433e+00,-3.711012601852416992e-01,-2.685546875000000000e+00,1.335144042968750000e+00,-4.180908203125000000e+00
3.604971957206726074e+01,-1.726219415664672852e+00,-9.619902610778808594e+00,-2.729389965534210205e-01,-2.685546875000000000e+00,2.960205078125000000e+00,-6.652832031250000000e+00
3.606095290184020996e+01,-1.726219415664672852e+00,-9.732429504394531250e+00,-2.729389965534210205e-01,-3.677368164062500000e+00,7.705688476562500000e-01,-4.180908203125000000e+00
3.607600998878479004e+01,-1.750161409378051758e+00,-9.732429504394531250e+00,-3.280056416988372803e-01,-3.677368164062500000e+00,7.705688476562500000e-01,-1.449584960937500000e-01
3.608805179595947266e+01,-1.750161409378051758e+00,-9.993397712707519531e+00,-3.280056416988372803e-01,-3.677368164062500000e+00,7.705688476562500000e-01,-1.449584960937500000e-01
3.610208725929260254e+01,-1.745373010635375977e+00,-9.993397712707519531e+00,-2.561795711517333984e-01,-3.479003906250000000e+00,1.411437988281250000e+00,-4.119873046875000000e-01
3.611484003067016602e+01,-1.745373010635375977e+00,-9.950302124023437500e+00,-1.484405100345611017e-01,-4.096984863281250000e+00,2.441406250000000000e+00,-4.539489746093750000e+00
3.612952756881713867e+01,-1.695094823837280495e+00,-9.744400978088380683e+00,-1.484405100345611017e-01,-4.547119140625000000e+00,2.044677734375000000e+00,-4.539489746093750000e+00
3.614463138580322266e+01,-1.841141104698180708e+00,-9.744400978088380683e+00,-2.873041927814483087e-01,-4.547119140625000000e+00,2.044677734375000000e+00,-4.539489746093750000e+00
3.615641808509826660e+01,-1.841141104698180708e+00,-9.799467086791992188e+00,-3.375824391841887873e-01,-2.822875976562500000e+00,4.425048828125000000e-01,-2.204895019531250000e+00
3.617199444770812988e+01,-1.841141104698180708e+00,-9.890446662902832031e+00,-3.375824391841887873e-01,-2.822875976562500000e+00,4.425048828125000000e-01,-2.204895019531250000e+00
3.618394398689270020e+01,-1.537077426910400391e+00,-9.799467086791992188e+00,-1.819593310356140137e-01,-1.777648925781250000e+00,3.250122070312500000e+00,-4.447937011718750000e+00
3.619849109649658203e+01,-1.537077426910400391e+00,-9.890446662902832031e+00,-1.053448766469955028e-01,-8.087158203125000000e-01,3.250122070312500000e+00,-4.447937011718750000e+00
3.621026039123535156e+01,-1.520318031311035156e+00,-9.789890289306640625e+00,-7.422025501728049535e-02,-8.087158203125000000e-01,2.746582031250000000e-01,-4.447937011718750000e+00
3.622589159011840820e+01,-1.683123707771301270e+00,-9.789890289306640625e+00,-1.053448766469955028e-01,-2.532958984375000000e+00,2.746582031250000000e-01,-4.638671875000000000e+00
3.624042844772338867e+01,-1.683123707771301270e+00,-9.789890289306640625e+00,-9.576806426048270482e-02,-2.532958984375000000e+00,1.335144042968750000e+00,-4.638671875000000000e+00
3.625324964523315430e+01,-1.683123707771301270e+00,-9.674968719482421875e+00,-9.576806426048270482e-02,-2.960205078125000000e+00,3.105163574218750000e+00,-2.738952636718750000e+00
3.626986217498779297e+01,-1.711854219436645508e+00,-9.792284965515136719e+00,-9.576806426048270482e-02,-4.997253417968750000e+00,2.258300781250000000e+00,-2.738952636718750000e+00
3.628006410598754883e+01,-1.673546910285949707e+00,-9.789890289306640625e+00,-5.339069962501525879e-01,-4.997253417968750000e+00,2.258300781250000000e+00,-3.707885742187500000e+00
3.629482746124267578e+01,-1.912967085838317649e+00,-9.792284965515136719e+00,-5.339069962501525879e-01,-2.632141113281250000e+00,1.739501953125000000e+00,-5.012512207031250000e+00
3.630892324447631836e+01,-1.731007814407348633e+00,-9.799467086791992188e+00,-3.112462162971496027e-01,-2.319335937500000000e+00,1.655578613281250000e+00,-5.012512207031250000e+00
3.632199573516845703e+01,-1.731007814407348633e+00,-9.799467086791992188e+00,-1.532289087772369107e-01,-1.953125000000000000e+00,1.655578613281250000e+00,-6.690979003906250000e+00
3.633607244491577148e+01,-1.381454348564147949e+00,-9.579200744628906250e+00,-1.532289087772369107e-01,-1.953125000000000000e+00,1.655578613281250000e+00,-7.606506347656250000e+00
3.635101413726806641e+01,-1.273715257644653098e+00,-9.579200744628906250e+00,1.197100803256029994e-02,-1.953125000000000000e+00,5.172729492187500000e+00,-7.156372070312500000e+00
3.636409807205200195e+01,-1.273715257644653098e+00,-9.794678688049316406e+00,1.675941236317150113e-02,-5.477905273437500000e+00,5.172729492187500000e+00,-7.156372070312500000e+00
3.637595558166503906e+01,-1.505952835083007812e+00,-9.794678688049316406e+00,1.197100803256029994e-02,-6.462097167968750000e+00,-3.837585449218750000e+00,-9.155273437500000000e-02
3.639305639266967773e+01,-1.606509327888488770e+00,-9.794678688049316406e+00,-2.705447971820830744e-01,-6.462097167968750000e+00,-3.837585449218750000e+00,3.204345703125000000e-01
3.640377378463745117e+01,-1.505952835083007812e+00,-9.890446662902832031e+00,-2.705447971820830744e-01,-4.417419433593750000e+00,-5.264282226562500000e-01,3.204345703125000000e-01
3.641728329658508301e+01,-1.762132406234741211e+00,-9.890446662902832031e+00,-1.412578970193862915e-01,-3.837585449218750000e+00,-5.187988281250000000e-01,-5.180358886718750000e+00
3.643200898170471191e+01,-1.398213744163513184e+00,-9.598354339599609375e+00,0.000000000000000000e+00,-3.837585449218750000e+00,3.982543945312500000e+00,-6.278991699218750000e+00
3.644488143920898438e+01,-1.568202137947082297e+00,-9.598354339599609375e+00,0.000000000000000000e+00,-4.951477050781250000e+00,1.853942871093750000e+00,-6.332397460937500000e+00
3.645696997642517090e+01,-1.460463047027587891e+00,-9.991003990173339844e+00,-1.795651316642760953e-01,-4.951477050781250000e+00,1.853942871093750000e+00,-6.332397460937500000e+00
3.647383666038513184e+01,-1.568202137947082297e+00,-9.991003990173339844e+00,-1.795651316642760953e-01,-3.471374511718750000e+00,1.853942871093750000e+00,-4.135131835937500000e+00
3.648663330078125000e+01,-1.558625221252441406e+00,-9.931148529052734375e+00,-1.484405100345611017e-01,-3.471374511718750000e+00,2.395629882812500000e+00,-4.135131835937500000e+00
3.649802207946777344e+01,-1.558625221252441406e+00,-9.931148529052734375e+00,-1.484405100345611017e-01,-3.562927246093750000e+00,3.486633300781250000e+00,-4.516601562500000000e+00
3.651594567298889160e+01,-1.498770236968993919e+00,-9.897629737854003906e+00,-1.747767180204390924e-01,-5.874633789062500000e+00,2.395629882812500000e+00,-5.477905273437500000e+00
3.652728414535522461e+01,-1.350329756736755371e+00,-9.730035781860351562e+00,-1.915361285209654929e-01,-5.874633789062500000e+00,1.235961914062500000e+00,-4.516601562500000000e+00
3.654019427299499512e+01,-1.364694952964782715e+00,-9.730035781860351562e+00,-1.915361285209654929e-01,-5.165100097656250000e+00,-1.678466796875000000e-01,-5.798339843750000000e-01
3.655254197120666504e+01,-1.350329756736755371e+00,-9.971849441528320312e+00,-1.364694982767105103e-01,-5.149841308593750000e+00,-1.678466796875000000e-01,-5.798339843750000000e-01
3.656787133216857910e+01,-1.362300753593444824e+00,-9.974244117736816406e+00,-1.364694982767105103e-01,-5.149841308593750000e+00,3.669738769531250000e+00,-3.959655761718750000e+00
3.657930064201354980e+01,-1.304839849472045898e+00,-9.971849441528320312e+00,-3.208230137825012207e-01,-5.149841308593750000e+00,3.669738769531250000e+00,-4.066467285156250000e+00
3.659502530097961426e+01,-1.362300753593444824e+00,-1.008677196502685547e+01,-3.639186620712280273e-01,-5.630493164062500000e+00,2.746582031250000000e+00,-4.112243652343750000e+00
3.660990953445434570e+01,-1.362300753593444824e+00,-1.001255130767822443e+01,-3.950432837009429932e-01,-4.997253417968750000e+00,2.365112304687500000e+00,-5.455017089843750000e+00
3.662114858627319336e+01,-1.391031146049499512e+00,-1.013226127624511541e+01,-3.950432837009429932e-01,-4.417419433593750000e+00,2.746582031250000000e+00,-5.455017089843750000e+00
3.663647627830505371e+01,-1.362300753593444824e+00,-1.001255130767822443e+01,-2.394201606512068869e-01,-3.829956054687500000e+00,1.907348632812500000e+00,-4.516601562500000000e+00
3.664843249320983887e+01,-1.273715257644653098e+00,-9.945513725280761719e+00,-2.394201606512068869e-01,-4.417419433593750000e+00,2.281188964843750000e+00,-4.516601562500000000e+00
3.666302776336669922e+01,-1.108515381813049094e+00,-9.945513725280761719e+00,4.548983275890350342e-02,-6.233215332031250000e+00,2.281188964843750000e+00,-4.226684570312500000e+00
3.667560219764709473e+01,-1.108515381813049094e+00,-9.720458984375000000e+00,-2.250549495220184049e-01,-6.233215332031250000e+00,2.281188964843750000e+00,-3.395080566406250000e+00
3.669020438194274902e+01,-1.130063176155090332e+00,-9.720458984375000000e+00,-2.250549495220184049e-01,-6.080627441406250000e+00,1.525878906250000000e+00,-2.075195312500000000e+00
3.670577764511108398e+01,-1.446097850799560325e+00,-9.720458984375000000e+00,-2.250549495220184049e-01,-6.080627441406250000e+00,1.525878906250000000e+00,-1.121520996093750000e+00
3.671739816665649414e+01,-1.316810965538024902e+00,-9.907206535339355469e+00,-2.825157940387725830e-01,-5.897521972656250000e+00,1.564025878906250000e+00,-1.121520996093750000e+00
3.673209571838378906e+01,-1.419761538505554199e+00,-1.002212810516357422e+01,-5.363011956214904785e-01,-5.897521972656250000e+00,1.632690429687500000e+00,-2.250671386718750000e+00
3.674464488029479980e+01,-1.419761538505554199e+00,-1.002212810516357422e+01,-5.363011956214904785e-01,-5.897521972656250000e+00,1.564025878906250000e+00,-2.250671386718750000e+00
3.675970268249511719e+01,-1.419761538505554199e+00,-1.002212810516357422e+01,-5.123591423034667969e-01,-6.790161132812500000e+00,7.400512695312500000e-01,-2.250671386718750000e+00
3.677178287506103516e+01,-1.259350061416625977e+00,-9.897629737854003906e+00,-4.764461219310759943e-01,-6.790161132812500000e+00,7.400512695312500000e-01,-7.553100585937500000e-01
3.678649640083312988e+01,-1.101332783699035645e+00,-9.854534149169921875e+00,-2.035071402788161954e-01,-4.905700683593750000e+00,7.400512695312500000e-01,-1.052856445312500000e+00
3.680125665664672852e+01,-1.101332783699035645e+00,-9.854534149169921875e+00,-2.035071402788161954e-01,-4.905700683593750000e+00,2.059936523437500000e+00,-1.052856445312500000e+00
3.681391024589538574e+01,-1.101332783699035645e+00,-9.770736694335937500e+00,-2.705447971820830744e-01,-4.096984863281250000e+00,-2.517700195312500000e-01,-1.052856445312500000e+00
3.682899856567382812e+01,-1.438915252685546875e+00,-9.799467086791992188e+00,-2.705447971820830744e-01,-5.241394042968750000e+00,-1.785278320312500000e+00,-9.536743164062500000e-01
3.684006500244140625e+01,-1.642422318458557129e+00,-9.799467086791992188e+00,-3.447650372982025146e-01,-5.241394042968750000e+00,-1.785278320312500000e+00,-9.536743164062500000e-01
3.685552978515625000e+01,-1.489193439483642578e+00,-9.799467086791992188e+00,-3.447650372982025146e-01,-5.241394042968750000e+00,-2.632141113281250000e+00,-1.167297363281250000e+00
3.686734604835510254e+01,-1.489193439483642578e+00,-9.782708168029783380e+00,-3.447650372982025146e-01,-3.242492675781250000e+00,-2.632141113281250000e+00,-1.167297363281250000e+00
3.688279199600219727e+01,-1.489193439483642578e+00,-9.354146003723144531e+00,5.746084079146380336e-02,-3.242492675781250000e+00,-2.632141113281250000e+00,1.632690429687500000e+00
3.689725160598754883e+01,-1.039083480834960938e+00,-9.354146003723144531e+00,5.746084079146380336e-02,-6.637573242187500000e+00,-6.332397460937500000e-01,5.569458007812500000e+00
3.690926265716552734e+01,-1.039083480834960938e+00,-9.653421401977540839e+00,-9.337386488914489746e-02,-6.637573242187500000e+00,2.151489257812500000e+00,5.569458007812500000e+00
3.692438459396362305e+01,-9.241618514060974121e-01,-9.974244117736816406e+00,-9.337386488914489746e-02,-6.637573242187500000e+00,-6.332397460937500000e-01,8.056640625000000000e+00
3.694197177886962891e+01,-9.241618514060974121e-01,-9.653421401977540839e+00,9.337386488914489746e-02,-8.041381835937500000e+00,2.151489257812500000e+00,8.056640625000000000e+00
3.695236396789550781e+01,-5.746083855628967285e-01,-9.794678688049316406e+00,9.337386488914489746e-02,-8.041381835937500000e+00,-1.625061035156250000e+00,7.560729980468750000e+00
3.696664190292358398e+01,-1.831564307212829590e+00,-9.794678688049316406e+00,-1.273715257644653098e+00,-7.675170898437500000e+00,-2.868652343750000000e+00,7.560729980468750000e+00
3.698103117942810059e+01,-1.340752959251403809e+00,-1.026154804229736328e+01,-1.273715257644653098e+00,-4.386901855468750000e+00,-2.868652343750000000e+00,7.560729980468750000e+00
3.699401831626892090e+01,-1.946485996246337891e+00,-1.054645824432373047e+01,-1.489193439483642578e+00,-4.386901855468750000e+00,-2.868652343750000000e+00,2.883911132812500000e+00
3.700597810745239258e+01,-1.946485996246337891e+00,-1.054645824432373047e+01,-4.357447028160095215e-01,-4.386901855468750000e+00,-4.432678222656250000e+00,1.632690429687500000e+00
3.702291655540466309e+01,-1.946485996246337891e+00,-9.746794700622560370e+00,-1.388636976480484009e-01,-5.073547363281250000e+00,-4.432678222656250000e+00,1.632690429687500000e+00
3.703266978263854980e+01,-1.374271750450134499e+00,-9.330204010009765625e+00,3.591302409768099696e-02,-5.813598632812500000e+00,-6.103515625000000000e-02,1.632690429687500000e+00
3.704782700538635254e+01,-1.333570361137389915e+00,-9.746794700622560370e+00,-1.388636976480484009e-01,-6.027221679687500000e+00,6.713867187500000000e-01,3.562927246093750000e+00
3.706192326545715332e+01,-1.374271750450134499e+00,-1.008437728881835938e+01,7.661445438861839985e-02,-8.361816406250000000e+00,6.713867187500000000e-01,3.562927246093750000e+00
3.707506561279296875e+01,-1.929726481437683105e+00,-1.008437728881835938e+01,7.661445438861839985e-02,-8.361816406250000000e+00,6.713867187500000000e-01,1.266479492187500000e+00
3.708938264846801758e+01,-1.929726481437683105e+00,-9.799467086791992188e+00,7.661445438861839985e-02,-6.637573242187500000e+00,-1.342773437500000000e+00,1.266479492187500000e+00
3.710391879081726074e+01,-1.680729508399963379e+00,-9.799467086791992188e+00,-8.451532125473022461e-01,-6.637573242187500000e+00,-1.342773437500000000e+00,3.753662109375000000e+00
3.711664128303527832e+01,-9.792284965515135609e-01,-1.004846477508544922e+01,-8.451532125473022461e-01,-6.141662597656250000e+00,-2.670288085937500000e-01,8.544921875000000000e+00
3.712813115119934082e+01,-7.517793178558349609e-01,-1.008437728881835938e+01,-2.729389965534210205e-01,-6.141662597656250000e+00,-2.670288085937500000e-01,8.544921875000000000e+00
3.714588737487792969e+01,-7.517793178558349609e-01,-1.004846477508544922e+01,-2.729389965534210205e-01,-4.081726074218750000e+00,-6.278991699218750000e+00,5.485534667968750000e+00
3.715863013267517090e+01,-1.300051450729369895e+00,-9.734824180603027344e+00,-6.512228250503540039e-01,-4.081726074218750000e+00,-7.492065429687500000e+00,5.485534667968750000e+00
3.717114591598510742e+01,-2.264914751052856445e+00,-9.734824180603027344e+00,-9.528922438621519886e-01,-2.662658691406250000e+00,-9.017944335937500000e+00,8.338928222656250000e+00
3.718547797203063965e+01,-2.264914751052856445e+00,-9.734824180603027344e+00,-6.512228250503540039e-01,-2.128601074218750000e+00,-9.017944335937500000e+00,8.338928222656250000e+00
3.719738507270812988e+01,-2.264914751052856445e+00,-9.935936927795410156e+00,-1.288080453872680886e+00,-2.128601074218750000e+00,-4.142761230468750000e+00,8.453369140625000000e+00
3.721287918090820312e+01,-1.594538331031799094e+00,-1.034055709838867188e+01,-8.882488012313842773e-01,-2.128601074218750000e+00,-2.807617187500000000e+00,4.508972167968750000e+00
3.722410917282104492e+01,-1.594538331031799094e+00,-1.034055709838867188e+01,-9.050082564353943981e-01,-3.623962402343750000e+00,-2.807617187500000000e+00,4.943847656250000000e+00
3.724004387855529785e+01,-1.896207690238952859e+00,-1.013944435119628729e+01,-8.882488012313842773e-01,-1.068115234375000000e-01,-3.616333007812500000e+00,1.983642578125000000e-01
3.725114250183105469e+01,-1.896207690238952859e+00,-9.756371498107910156e+00,-4.285621047019957941e-01,1.060485839843750000e+00,-3.616333007812500000e+00,1.983642578125000000e-01
3.726692008972167969e+01,-1.635239720344543679e+00,-9.756371498107910156e+00,5.746084079146380336e-02,1.060485839843750000e+00,-3.616333007812500000e+00,1.983642578125000000e-01
3.728173780441284180e+01,-1.635239720344543679e+00,-9.725247383117675781e+00,5.746084079146380336e-02,-1.770019531250000000e+00,-4.882812500000000000e+00,6.507873535156250000e+00
3.729403042793273926e+01,-1.874659895896912065e+00,-9.926360130310060370e+00,-6.033388376235961914e-01,-2.990722656250000000e+00,-4.882812500000000000e+00,6.507873535156250000e+00
3.730800986289978027e+01,-2.066195964813232422e+00,-1.047702693939208984e+01,-6.655880808830261230e-01,-2.990722656250000000e+00,-5.073547363281250000e+00,6.507873535156250000e+00
3.732043123245239258e+01,-2.066195964813232422e+00,-1.064462089538574219e+01,-6.655880808830261230e-01,6.546020507812500000e+00,-1.907348632812500000e-01,2.029418945312500000e+00
3.733561658859252930e+01,-2.066195964813232422e+00,-1.047702693939208984e+01,-2.217030763626098189e+00,2.774047851562500000e+01,2.143859863281250000e+01,1.455688476562500000e+01
3.734728431701660156e+01,-4.266467571258544922e+00,-1.123120021820068359e+01,-2.758120298385620117e+00,3.740692138671875000e+01,2.143859863281250000e+01,6.149291992187500000e+00
3.736291503906250000e+01,5.456385612487792969e+00,-7.065289020538330078e+00,-2.217030763626098189e+00,3.740692138671875000e+01,2.143859863281250000e+01,1.804351806640625000e+01
3.737736558914184570e+01,-1.158793568611145020e+00,-1.063264942169189631e+01,2.118868350982666016e+00,1.368713378906250000e+01,-2.064514160156250000e+01,1.804351806640625000e+01
3.738931679725646973e+01,4.070142656564709749e-02,-7.065289020538330078e+00,2.118868350982666016e+00,1.368713378906250000e+01,-2.085876464843750000e+01,3.978729248046875000e+01
3.740445709228515625e+01,-1.158793568611145020e+00,-1.063264942169189631e+01,1.905784487724303977e+00,1.368713378906250000e+01,-2.855682373046875000e+01,4.298400878906250000e+01
3.741689443588256836e+01,-4.520252704620361328e+00,-1.050575733184814453e+01,8.834604024887084961e-01,7.385253906250000000e+00,-2.855682373046875000e+01,4.298400878906250000e+01
3.743139100074768066e+01,-4.520252704620361328e+00,-1.108515357971191406e+01,-3.227383852005004883e+00,7.385253906250000000e+00,-1.187896728515625000e+01,-2.212524414062500000e-01
3.744702649116516113e+01,-4.979939460754393976e-01,-1.050575733184814453e+01,-3.227383852005004883e+00,1.218414306640625000e+01,-1.187896728515625000e+01,-2.212524414062500000e-01
3.745866298675537109e+01,-4.979939460754393976e-01,-9.493009567260742188e+00,6.344634294509887695e-01,1.218414306640625000e+01,2.830505371093750000e+00,-3.524780273437500000e+00
3.747425270080566406e+01,-2.999934673309326172e+00,-9.493009567260742188e+00,8.667010068893432617e-01,8.148193359375000000e+00,-2.792358398437500000e+00,7.705688476562500000e-01
3.748582267761230469e+01,-2.999934673309326172e+00,-9.418788909912109375e+00,8.667010068893432617e-01,1.472473144531250000e+00,-1.144409179687500000e-01,-2.883911132812500000e+00
3.750032734870910645e+01,-1.323993563652038574e+00,-9.758766174316406250e+00,8.667010068893432617e-01,-1.983642578125000000e-01,-7.095336914062500000e-01,-2.883911132812500000e+00
3.751222991943359375e+01,-1.323993563652038574e+00,-9.758766174316406250e+00,1.795651316642760953e-01,-1.983642578125000000e-01,-7.095336914062500000e-01,-2.883911132812500000e+00
3.752782416343688965e+01,-1.831564307212829590e+00,-9.758766174316406250e+00,1.268926858901976984e-01,5.767822265625000000e+00,-7.095336914062500000e-01,1.106262207031250000e+00
3.754321265220642090e+01,-2.126051187515258789e+00,-9.615114212036132812e+00,1.795651316642760953e-01,5.767822265625000000e+00,1.449584960937500000e+00,1.106262207031250000e+00
3.755429577827453613e+01,-2.126051187515258789e+00,-9.457096099853515625e+00,8.667010068893432617e-01,2.593994140625000000e+00,1.449584960937500000e+00,1.106262207031250000e+00
3.757308840751647949e+01,-1.946485996246337891e+00,-9.449913978576660156e+00,8.667010068893432617e-01,2.593994140625000000e+00,1.602172851562500000e-01,-5.645751953125000000e-01
3.758441257476806641e+01,-1.946485996246337891e+00,-9.457096099853515625e+00,6.727706789970397949e-01,5.867004394531250000e+00,1.602172851562500000e-01,-4.570007324218750000e+00
3.759697699546813965e+01,-2.188300371170043945e+00,-9.801861763000488281e+00,6.727706789970397949e-01,5.867004394531250000e+00,1.602172851562500000e-01,-4.570007324218750000e+00
3.761090493202209473e+01,-2.188300371170043945e+00,-9.801861763000488281e+00,7.900865375995630435e-02,7.896423339843750000e+00,4.898071289062500000e+00,-1.953125000000000000e+00
3.762331557273864746e+01,-1.924938082695007546e+00,-9.531316757202148438e+00,-1.316810846328735074e-01,9.437561035156250000e+00,-3.089904785156250000e+00,3.486633300781250000e+00
3.763919854164123535e+01,-1.924938082695007546e+00,-9.531316757202148438e+00,-1.316810846328735074e-01,1.263427734375000000e+01,-2.258300781250000000e+00,4.684448242187500000e+00
3.765298032760620117e+01,-1.924938082695007546e+00,-1.009874248504638850e+01,-1.244984865188597939e-01,9.437561035156250000e+00,-3.089904785156250000e+00,7.965087890625000000e+00
3.766540002822875977e+01,-1.340752959251403809e+00,-1.038125801086425781e+01,1.343147158622741699e+00,5.416870117187500000e-01,-6.332397460937500000e+00,7.965087890625000000e+00
3.767797565460205078e+01,-1.340752959251403809e+00,-1.009874248504638850e+01,1.343147158622741699e+00,5.416870117187500000e-01,-6.332397460937500000e+00,7.461547851562500000e+00
3.769492816925048828e+01,-1.582567334175110085e+00,-9.320627212524414062e+00,1.031900882720947266e+00,1.329040527343750000e+01,-1.808166503906250000e+00,7.400512695312500000e+00
3.770779728889465332e+01,-2.195482969284057617e+00,-9.320627212524414062e+00,1.031900882720947266e+00,1.329040527343750000e+01,-1.419067382812500000e+00,-5.340576171875000000e-02
3.771999692916870117e+01,-2.195482969284057617e+00,-9.797073364257812500e+00,1.091755986213684082e+00,1.473999023437500000e+01,3.509521484375000000e-01,-1.113891601562500000e+00
3.773692178726196289e+01,-1.754949808120727539e+00,-1.015859794616699219e+01,1.352723956108093262e+00,9.963989257812500000e+00,-1.419067382812500000e+00,-1.113891601562500000e+00
3.774810886383056641e+01,-1.754949808120727539e+00,-9.797073364257812500e+00,1.091755986213684082e+00,1.473999023437500000e+01,1.045227050781250000e+00,-1.113891601562500000e+00
3.776121950149536133e+01,-2.633621931076049805e+00,-9.358934402465820312e+00,9.528922438621519886e-01,1.792144775390625000e+01,-7.034301757812500000e+00,1.289367675781250000e+00
3.777586817741394043e+01,-2.633621931076049805e+00,-9.358934402465820312e+00,9.528922438621519886e-01,1.792144775390625000e+01,-1.586914062500000000e+00,-1.350402832031250000e+00
3.778817057609558105e+01,-2.731784105300903764e+00,-9.507374763488769531e+00,9.528922438621519886e-01,1.792144775390625000e+01,-1.586914062500000000e+00,-3.845214843750000000e+00
3.780351448059082031e+01,-1.484405040740966797e+00,-9.694122314453123224e+00,1.211466073989868164e+00,1.578521728515625000e+01,-1.586914062500000000e+00,-3.845214843750000000e+00
3.781522297859191895e+01,-2.020706176757812500e+00,-9.813832283020019531e+00,6.320692300796508789e-01,2.060699462890625000e+01,2.304077148437500000e+00,-6.088256835937500000e+00
3.783038830757141113e+01,-1.905784487724303977e+00,-9.916783332824708808e+00,1.211466073989868164e+00,1.563262939453125000e+01,8.392333984375000000e-02,-3.776550292968750000e+00
3.784239125251770020e+01,-1.905784487724303977e+00,-9.916783332824708808e+00,1.173158764839172363e+00,1.407623291015625000e+01,1.548767089843750000e+00,-5.043029785156250000e+00
3.785773921012878418e+01,-1.654393315315246582e+00,-9.916783332824708808e+00,1.374271750450134499e+00,1.407623291015625000e+01,8.392333984375000000e-02,-3.776550292968750000e+00
3.787013888359069824e+01,-1.654393315315246582e+00,-9.789890289306640625e+00,1.400607943534851074e+00,1.440429687500000000e+01,-2.037048339843750000e+00,-2.479553222656250000e+00
3.788447237014770508e+01,-1.431732535362243652e+00,-9.904811859130859375e+00,1.594538331031799094e+00,1.847839355468750000e+01,-2.037048339843750000e+00,-2.479553222656250000e+00
3.789653253555297852e+01,-1.757344007492065430e+00,-9.789890289306640625e+00,1.400607943534851074e+00,1.881408691406250000e+01,-1.472473144531250000e+00,-2.479553222656250000e+00
3.791203165054321289e+01,-1.369483351707458496e+00,-9.667786598205566406e+00,1.594538331031799094e+00,1.847839355468750000e+01,-1.472473144531250000e+00,-2.166748046875000000e+00
3.792707157135009766e+01,-1.855506300926208496e+00,-9.452307701110839844e+00,1.436521053314208984e+00,2.383422851562500000e+01,1.197814941406250000e+00,-2.166748046875000000e+00
3.793821072578430176e+01,-1.855506300926208496e+00,-9.667786598205566406e+00,1.436521053314208984e+00,2.384185791015625000e+01,4.058837890625000000e+00,-5.912780761718750000e+00
3.795366001129150391e+01,-2.750937700271606445e+00,-1.018972206115722834e+01,4.022258818149566095e-01,3.398132324218750000e+01,4.058837890625000000e+00,-6.690979003906250000e+00
3.796581029891967773e+01,-2.750937700271606445e+00,-1.018972206115722834e+01,4.022258818149566095e-01,3.485870361328125000e+01,2.532958984375000000e+00,-6.690979003906250000e+00
3.798018050193786621e+01,-2.173935174942016602e+00,-9.361328125000000000e+00,6.655880808830261230e-01,3.485870361328125000e+01,-1.213073730468750000e+00,-3.730773925781250000e+00
3.799260497093200684e+01,-2.173935174942016602e+00,-9.361328125000000000e+00,1.209071874618530495e+00,3.881835937500000000e+01,-4.852294921875000000e+00,-3.730773925781250000e+00
3.800771093368530273e+01,-2.276885747909545898e+00,-1.041956520080566406e+01,1.673546910285949707e+00,4.118347167968750000e+01,-4.852294921875000000e+00,-1.044464111328125000e+01
3.802304601669311523e+01,-2.276885747909545898e+00,-1.041956520080566406e+01,1.673546910285949707e+00,4.343414306640625000e+01,-1.556396484375000000e+00,-1.762390136718750000e+01
3.803494429588317871e+01,-1.297657251358032227e+00,-9.864110946655271661e+00,1.793256998062133789e+00,5.108642578125000000e+01,-1.045227050781250000e+00,-1.762390136718750000e+01
3.805070424079895020e+01,-1.297657251358032227e+00,-8.702922821044921875e+00,2.257732152938842773e+00,5.108642578125000000e+01,-1.556396484375000000e+00,-1.185607910156250000e+01
3.806159043312072754e+01,-1.307234048843383789e+00,-8.310274124145507812e+00,2.853888273239136186e+00,4.597473144531250000e+01,-3.936767578125000000e+00,-5.157470703125000000e+00
3.807614827156066895e+01,-1.307234048843383789e+00,-8.310274124145507812e+00,3.684676408767700195e+00,2.424621582031250000e+01,-3.936767578125000000e+00,-2.967834472656250000e+00
3.809178614616394043e+01,-1.113303780555725098e+00,-8.391676902770996094e+00,3.684676408767700195e+00,5.638122558593750000e+00,-3.204345703125000000e-01,-2.349853515625000000e+00
3.810351467132568359e+01,-1.113303780555725098e+00,-9.009381294250488281e+00,2.772485494613647461e+00,2.601623535156250000e+00,-3.204345703125000000e-01,1.960754394531250000e+00
3.811896586418151855e+01,-1.946485996246337891e+00,-9.361328125000000000e+00,2.564189910888671875e+00,-5.340576171875000000e-02,-8.926391601562500000e-01,1.960754394531250000e+00
3.813061547279357910e+01,-1.946485996246337891e+00,-9.375693321228027344e+00,2.564189910888671875e+00,2.601623535156250000e+00,-8.926391601562500000e-01,-6.027221679687500000e-01
3.814608764648437500e+01,-1.711854219436645508e+00,-9.375693321228027344e+00,2.564189910888671875e+00,3.738403320312500000e-01,6.408691406250000000e-01,-6.027221679687500000e-01
3.816293692588806152e+01,-1.410184741020202637e+00,-9.246406555175779474e+00,2.715024709701538086e+00,2.021789550781250000e+00,6.408691406250000000e-01,1.029968261718750000e+00
3.817392778396606445e+01,-1.711854219436645508e+00,-9.157821655273437500e+00,2.473210334777832031e+00,3.738403320312500000e-01,4.577636718750000000e-02,1.449584960937500000e+00
3.818717408180236816e+01,-1.410184741020202637e+00,-9.157821655273437500e+00,2.715024709701538086e+00,2.021789550781250000e+00,4.577636718750000000e-02,1.449584960937500000e+00
3.820188999176025391e+01,-1.350329756736755371e+00,-9.157821655273437500e+00,2.473210334777832031e+00,-1.144409179687500000e+00,-1.480102539062500000e+00,1.899719238281250000e+00
3.821463584899902344e+01,-1.350329756736755371e+00,-9.457096099853515625e+00,2.657563924789428711e+00,1.754760742187500000e-01,7.019042968750000000e-01,-1.060485839843750000e+00
3.822981977462768555e+01,-1.692700624465942383e+00,-9.114726066589355469e+00,2.657563924789428711e+00,-1.144409179687500000e+00,-1.983642578125000000e+00,1.052856445312500000e+00
3.824387645721435547e+01,-1.692700624465942383e+00,-9.457096099853515625e+00,2.683900117874145064e+00,-1.533508300781250000e+00,-1.983642578125000000e+00,7.629394531250000000e-03
3.825641655921936035e+01,-1.515529632568359375e+00,-9.244012832641601562e+00,2.683900117874145064e+00,-1.533508300781250000e+00,-2.342224121093750000e+00,7.629394531250000000e-03
3.826846671104431152e+01,-1.515529632568359375e+00,-9.366116523742675781e+00,2.755726099014282227e+00,-1.533508300781250000e+00,-2.342224121093750000e+00,7.629394531250000000e-03
3.828600978851318359e+01,-1.637633919715881126e+00,-9.244012832641601562e+00,2.626439332962036133e+00,-2.227783203125000000e+00,-1.235961914062500000e+00,-2.441406250000000000e-01
3.829666614532470703e+01,-1.707065820693969505e+00,-9.339780807495115411e+00,2.633621931076049805e+00,-2.265930175781250000e+00,-2.517700195312500000e-01,7.629394531250000000e-03
3.831103038787841797e+01,-1.637633919715881126e+00,-9.083600997924804688e+00,2.633621931076049805e+00,-2.227783203125000000e+00,-2.517700195312500000e-01,8.468627929687500000e-01
3.832802319526672363e+01,-1.572990536689758301e+00,-9.339780807495115411e+00,3.062183856964111772e+00,-2.265930175781250000e+00,7.629394531250000000e-02,9.155273437500000000e-01
3.833846330642700195e+01,-1.572990536689758301e+00,-9.081207275390623224e+00,3.062183856964111772e+00,-2.059936523437500000e+00,7.629394531250000000e-02,9.155273437500000000e-01
3.835262918472290039e+01,-1.572990536689758301e+00,-9.351751327514648438e+00,3.301604032516479492e+00,-2.059936523437500000e+00,2.593994140625000000e-01,1.678466796875000000e-01
3.836686658859252930e+01,-1.719036817550659180e+00,-8.829815864562988281e+00,2.489969730377197266e+00,-2.059936523437500000e+00,-9.155273437500000000e-02,1.678466796875000000e-01
3.837932443618774414e+01,-1.640028119087219238e+00,-9.351751327514648438e+00,3.023876667022705078e+00,-5.416870117187500000e-01,2.593994140625000000e-01,1.678466796875000000e-01
3.839142656326293945e+01,-1.640028119087219238e+00,-9.165003776550291192e+00,2.489969730377197266e+00,-4.478454589843750000e+00,-1.701354980468750000e+00,2.136230468750000000e-01
3.840643119812011719e+01,-1.606509327888488770e+00,-9.165003776550291192e+00,3.023876667022705078e+00,-7.629394531250000000e-02,2.532958984375000000e+00,-1.091003417968750000e+00
3.842194414138793945e+01,-1.606509327888488770e+00,-9.165003776550291192e+00,3.040636062622070312e+00,-5.836486816406250000e+00,-1.701354980468750000e+00,2.136230468750000000e-01
3.843383884429931641e+01,-1.841141104698180708e+00,-9.397241592407228339e+00,3.040636062622070312e+00,1.426696777343750000e+00,2.670288085937500000e+00,-2.334594726562500000e+00
3.844825649261474609e+01,-1.841141104698180708e+00,-9.512163162231443536e+00,2.896984100341796875e+00,-2.700805664062500000e+00,-6.866455078125000000e-02,-8.697509765625000000e-01
3.846040558815002441e+01,-1.606509327888488770e+00,-9.512163162231443536e+00,2.801215887069702148e+00,-1.113891601562500000e+00,2.670288085937500000e+00,-2.334594726562500000e+00
3.847545313835144043e+01,-1.606509327888488770e+00,-9.083600997924804688e+00,2.851494073867797852e+00,-2.700805664062500000e+00,-6.866455078125000000e-02,-8.697509765625000000e-01
3.848745203018188477e+01,-1.678335309028625710e+00,-9.052476882934570312e+00,2.585737705230712891e+00,-1.525878906250000000e+00,-5.111694335937500000e-01,6.713867187500000000e-01
3.850281476974487305e+01,-1.764526605606079102e+00,-9.052476882934570312e+00,2.391807556152344194e+00,-2.746582031250000000e+00,-1.159667968750000000e+00,6.713867187500000000e-01
3.851460242271423340e+01,-1.764526605606079102e+00,-9.050082206726074219e+00,2.391807556152344194e+00,-1.525878906250000000e+00,-1.159667968750000000e+00,-1.678466796875000000e-01
3.852903819084167480e+01,-1.764526605606079102e+00,-9.287108421325683594e+00,2.856282472610473633e+00,-3.242492675781250000e+00,-1.159667968750000000e+00,-1.678466796875000000e-01
3.854418492317199707e+01,-1.714248418807983398e+00,-9.009381294250488281e+00,2.856282472610473633e+00,-1.121520996093750000e+00,-1.419067382812500000e+00,1.548767089843750000e+00
3.855670356750488281e+01,-1.714248418807983398e+00,-9.689333915710449219e+00,2.932897090911864790e+00,-4.318237304687500000e+00,-1.419067382812500000e+00,1.548767089843750000e+00
3.857162737846374512e+01,-1.704671621322631836e+00,-9.009381294250488281e+00,2.513911724090576172e+00,-1.121520996093750000e+00,-4.119873046875000000e-01,6.103515625000000000e-01
3.858327460289001465e+01,-1.704671621322631836e+00,-9.787496566772459161e+00,2.952050685882568359e+00,-3.684997558593750000e+00,4.196166992187500000e-01,6.103515625000000000e-01
3.859892344474792480e+01,-1.910572886466979980e+00,-8.937554359436035156e+00,2.473210334777832031e+00,-7.934570312500000000e-01,4.196166992187500000e-01,-1.228332519531250000e+00
3.861428666114807129e+01,-1.910572886466979980e+00,-9.497797966003417969e+00,2.547430515289306197e+00,-1.495361328125000000e+00,-4.882812500000000000e-01,8.850097656250000000e-01
3.862542891502380371e+01,-1.704671621322631836e+00,-8.937554359436035156e+00,2.422932147979736328e+00,-9.994506835937500000e-01,-1.197814941406250000e+00,3.585815429687500000e-01
3.864072418212890625e+01,-1.704671621322631836e+00,-9.497797966003417969e+00,2.547430515289306197e+00,-1.495361328125000000e+00,-1.197814941406250000e+00,8.850097656250000000e-01
3.865290999412536621e+01,-1.924938082695007546e+00,-9.540893554687500000e+00,2.422932147979736328e+00,-2.792358398437500000e+00,-2.929687500000000000e+00,1.022338867187500000e+00
3.866719818115234375e+01,-1.924938082695007546e+00,-9.540893554687500000e+00,3.224989652633666992e+00,-2.792358398437500000e+00,-6.637573242187500000e-01,1.022338867187500000e+00
3.867925620079040527e+01,-1.572990536689758301e+00,-9.452307701110839844e+00,3.320757627487182617e+00,-2.792358398437500000e+00,2.975463867187500000e-01,2.746582031250000000e-01
3.869507312774658203e+01,-1.572990536689758301e+00,-9.452307701110839844e+00,3.320757627487182617e+00,-1.792907714843750000e+00,2.975463867187500000e-01,2.746582031250000000e-01
3.870958256721496582e+01,-1.572990536689758301e+00,-9.452307701110839844e+00,2.533065319061279741e+00,-3.135681152343750000e+00,1.068115234375000000e-01,4.577636718750000000e-01
3.872213292121887207e+01,-1.278503656387329102e+00,-9.196128845214843750e+00,2.533065319061279741e+00,-3.242492675781250000e+00,1.068115234375000000e-01,7.400512695312500000e-01
3.873656511306762695e+01,-1.278503656387329102e+00,-9.196128845214843750e+00,2.631227731704711914e+00,-3.242492675781250000e+00,1.533508300781250000e+00,4.577636718750000000e-01
3.874851560592651367e+01,-1.438915252685546875e+00,-9.344569206237791192e+00,3.098096847534180132e+00,-3.082275390625000000e+00,1.533508300781250000e+00,7.400512695312500000e-01
3.876415991783142090e+01,-1.517923831939697266e+00,-9.344569206237791192e+00,3.098096847534180132e+00,-2.998352050781250000e+00,1.831054687500000000e-01,1.602172851562500000e-01
3.877817511558532715e+01,-1.517923831939697266e+00,-9.253589630126951349e+00,3.098096847534180132e+00,-2.998352050781250000e+00,1.831054687500000000e-01,1.602172851562500000e-01
3.879291749000549316e+01,-1.517923831939697266e+00,-9.193734169006347656e+00,3.095702648162841797e+00,-3.227233886718750000e+00,1.831054687500000000e-01,1.602172851562500000e-01
3.880539107322692871e+01,-1.328781962394714355e+00,-9.193734169006347656e+00,3.095702648162841797e+00,-3.227233886718750000e+00,1.602172851562500000e-01,-7.247924804687500000e-01
3.881765508651733398e+01,-1.328781962394714355e+00,-8.810662269592285156e+00,2.671929121017456055e+00,-1.968383789062500000e+00,-7.247924804687500000e-01,-7.247924804687500000e-01
3.883485627174377441e+01,-1.558625221252441406e+00,-9.619902610778808594e+00,2.671929121017456055e+00,-1.968383789062500000e+00,1.602172851562500000e-01,-7.247924804687500000e-01
3.884567236900329590e+01,-1.613691926002502441e+00,-8.937554359436035156e+00,2.516305923461914062e+00,-3.288269042968750000e+00,-7.247924804687500000e-01,4.959106445312500000e-01
3.885938286781311035e+01,-1.613691926002502441e+00,-9.038111686706544745e+00,2.882618904113769087e+00,-3.288269042968750000e+00,1.556396484375000000e+00,6.713867187500000000e-01
3.887690138816833496e+01,-1.613691926002502441e+00,-9.038111686706544745e+00,2.935291290283203125e+00,-4.203796386718750000e+00,-1.815795898437500000e+00,2.082824707031250000e+00
3.888889312744140625e+01,-1.821987509727478027e+00,-9.038111686706544745e+00,2.935291290283203125e+00,-2.265930175781250000e+00,1.724243164062500000e+00,2.082824707031250000e+00
3.890112638473510742e+01,-1.821987509727478027e+00,-9.349357604980468750e+00,2.746149301528930664e+00,-3.852844238281250000e+00,1.136779785156250000e+00,-1.068115234375000000e+00
3.891616916656494141e+01,-1.644816517829895020e+00,-9.011775016784667969e+00,2.746149301528930664e+00,-2.265930175781250000e+00,1.319885253906250000e+00,-1.068115234375000000e+00
3.892844891548156738e+01,-1.644816517829895020e+00,-9.516951560974119317e+00,2.779668092727661133e+00,-2.662658691406250000e+00,1.136779785156250000e+00,9.155273437500000000e-02
3.894315814971923828e+01,-1.702277421951293945e+00,-8.918400764465332031e+00,2.779668092727661133e+00,-2.662658691406250000e+00,-1.388549804687500000e+00,9.155273437500000000e-02
3.895799088478088379e+01,-1.824381709098815918e+00,-9.045293807983398438e+00,2.875436305999755859e+00,-2.662658691406250000e+00,-1.388549804687500000e+00,-2.517700195312500000e-01
3.897127699851989746e+01,-1.824381709098815918e+00,-9.045293807983398438e+00,2.875436305999755859e+00,-5.424499511718750000e+00,-2.151489257812500000e+00,-2.517700195312500000e-01
3.898237800598144531e+01,-1.448492050170898438e+00,-9.045293807983398438e+00,2.875436305999755859e+00,-3.067016601562500000e+00,9.155273437500000000e-01,-1.296997070312500000e-01
3.899991917610168457e+01,-1.448492050170898438e+00,-9.454702377319335938e+00,2.729389905929564986e+00,-3.372192382812500000e+00,-1.083374023437500000e+00,1.945495605468750000e+00
3.901044559478759766e+01,-1.968033790588378906e+00,-9.064447402954101562e+00,2.729389905929564986e+00,-3.067016601562500000e+00,-7.858276367187500000e-01,1.754760742187500000e-01
3.902424597740173340e+01,-1.968033790588378906e+00,-9.064447402954101562e+00,2.729389905929564986e+00,-3.028869628906250000e+00,-7.858276367187500000e-01,1.754760742187500000e-01
3.903939080238342285e+01,-1.345541357994079590e+00,-9.064447402954101562e+00,2.729389905929564986e+00,-3.028869628906250000e+00,2.746582031250000000e-01,1.754760742187500000e-01
3.905182528495788574e+01,-1.345541357994079590e+00,-9.179368972778320312e+00,2.729389905929564986e+00,-3.089904785156250000e+00,2.822875976562500000e-01,2.616882324218750000e+00
3.906603455543518066e+01,-1.879448294639587624e+00,-9.378087997436523438e+00,2.808398485183715820e+00,-3.608703613281250000e+00,1.335144042968750000e+00,2.616882324218750000e+00
3.907899522781372070e+01,-1.879448294639587624e+00,-9.179368972778320312e+00,2.808398485183715820e+00,-3.608703613281250000e+00,2.822875976562500000e-01,3.814697265625000000e-02
3.909395122528076172e+01,-1.549048423767089844e+00,-9.227252960205078125e+00,2.808398485183715820e+00,-2.975463867187500000e+00,6.332397460937500000e-01,3.814697265625000000e-02
3.910938572883605957e+01,-1.549048423767089844e+00,-9.148244857788085938e+00,2.722207307815552202e+00,-2.975463867187500000e+00,-7.629394531250000000e-02,3.562927246093750000e+00
3.912053418159484863e+01,-1.869871497154236062e+00,-9.227252960205078125e+00,2.722207307815552202e+00,-3.196716308593750000e+00,6.332397460937500000e-01,3.562927246093750000e+00
3.913603115081787109e+01,-1.869871497154236062e+00,-9.153033256530761719e+00,2.722207307815552202e+00,-3.196716308593750000e+00,8.697509765625000000e-01,-2.441406250000000000e-01
3.914807152748107910e+01,-1.335964560508728027e+00,-9.153033256530761719e+00,2.832340478897094727e+00,-1.678466796875000000e+00,8.697509765625000000e-01,-2.441406250000000000e-01
3.916229963302612305e+01,-1.335964560508728027e+00,-9.133879661560060370e+00,2.832340478897094727e+00,-1.678466796875000000e+00,2.288818359375000000e-01,6.332397460937500000e-01
3.917443752288818359e+01,-1.790862798690795898e+00,-9.133879661560060370e+00,2.758120298385620117e+00,-1.678466796875000000e+00,2.288818359375000000e-01,6.332397460937500000e-01
3.919019961357116699e+01,-1.790862798690795898e+00,-9.392453193664550781e+00,2.758120298385620117e+00,-1.976013183593750000e+00,-1.152038574218750000e+00,4.196166992187500000e-01
3.920520257949829102e+01,-1.572990536689758301e+00,-9.392453193664550781e+00,2.782062292098999023e+00,-1.976013183593750000e+00,5.874633789062500000e-01,4.196166992187500000e-01
3.921613860130310059e+01,-1.572990536689758301e+00,-9.387664794921876776e+00,2.782062292098999023e+00,-2.655029296875000000e+00,-1.792907714843750000e+00,4.577636718750000000e-01
3.923145651817321777e+01,-1.788468599319458008e+00,-9.157821655273437500e+00,2.758120298385620117e+00,-3.608703613281250000e+00,5.111694335937500000e-01,4.577636718750000000e-01
3.924350166320800781e+01,-1.788468599319458008e+00,-9.083600997924804688e+00,2.758120298385620117e+00,-3.952026367187500000e+00,-7.095336914062500000e-01,2.975463867187500000e-01
3.925920295715332031e+01,-1.549048423767089844e+00,-9.002198219299316406e+00,2.758120298385620117e+00,-3.952026367187500000e+00,-7.095336914062500000e-01,2.975463867187500000e-01
3.927345967292785645e+01,-1.549048423767089844e+00,-9.002198219299316406e+00,2.789244890213012695e+00,-2.494812011718750000e+00,-7.095336914062500000e-01,6.866455078125000000e-01
3.928616118431091309e+01,-1.577778935432434082e+00,-9.004592895507812500e+00,2.789244890213012695e+00,-2.494812011718750000e+00,6.713867187500000000e-01,6.866455078125000000e-01
3.930062437057495117e+01,-1.678335309028625710e+00,-9.574412345886230469e+00,2.815581083297729048e+00,-2.883911132812500000e+00,6.713867187500000000e-01,3.204345703125000000e-01
3.931312489509582520e+01,-1.678335309028625710e+00,-9.574412345886230469e+00,2.815581083297729048e+00,-4.165649414062500000e+00,5.493164062500000000e-01,3.204345703125000000e-01
3.932799291610717773e+01,-1.656787514686584473e+00,-9.260771751403808594e+00,2.748543500900268999e+00,-4.325866699218750000e+00,5.493164062500000000e-01,1.518249511718750000e+00
3.934242177009582520e+01,-1.656787514686584473e+00,-9.040505409240724433e+00,2.738966703414916992e+00,-4.394531250000000000e+00,5.493164062500000000e-01,1.899719238281250000e+00
3.935456633567810059e+01,-1.656787514686584473e+00,-9.006986618041992188e+00,2.624045133590698242e+00,-4.325866699218750000e+00,1.754760742187500000e-01,1.518249511718750000e+00
3.936935877799987793e+01,-1.716642618179321289e+00,-9.006986618041992188e+00,2.624045133590698242e+00,-5.371093750000000000e+00,-1.632690429687500000e+00,1.945495605468750000e+00
3.938178014755249023e+01,-1.549048423767089844e+00,-8.944737434387207031e+00,2.679111719131469727e+00,-2.464294433593750000e+00,1.754760742187500000e-01,-2.822875976562500000e-01
3.939718961715698242e+01,-1.716642618179321289e+00,-9.026140213012695312e+00,2.700659513473510742e+00,-5.371093750000000000e+00,-2.426147460937500000e+00,1.945495605468750000e+00
3.940806484222412109e+01,-1.537077426910400391e+00,-8.944737434387207031e+00,2.700659513473510742e+00,-2.464294433593750000e+00,-9.765625000000000000e-01,9.918212890625000000e-02
3.942601466178894043e+01,-1.606509327888488770e+00,-9.540893554687500000e+00,2.995146274566650391e+00,-5.340576171875000000e+00,-9.765625000000000000e-01,1.625061035156250000e+00
3.943679046630859375e+01,-1.537077426910400391e+00,-8.983044624328613281e+00,2.882618904113769087e+00,-1.968383789062500000e+00,-2.136230468750000000e-01,6.103515625000000000e-01
3.945063352584838867e+01,-1.606509327888488770e+00,-9.686940193176269531e+00,2.995146274566650391e+00,-4.005432128906250000e+00,1.068115234375000000e-01,1.625061035156250000e+00
3.946788144111633301e+01,-1.522712230682373047e+00,-9.141061782836914062e+00,2.882618904113769087e+00,-2.853393554687500000e+00,4.653930664062500000e-01,6.103515625000000000e-01
3.947840213775634766e+01,-1.635239720344543679e+00,-9.414000511169433594e+00,2.889801502227783203e+00,-2.922058105468750000e+00,1.068115234375000000e-01,3.204345703125000000e-01
3.949264359474182129e+01,-1.553836822509765625e+00,-9.141061782836914062e+00,2.576160907745361328e+00,-2.922058105468750000e+00,-2.899169921875000000e-01,3.204345703125000000e-01
