# elapsed time, f1_acc_x, f1_acc_y, f1_acc_z, f1_gyro_x, f1_gyro_y, f1_gyro_z
1.025460886955261230e+01,-5.501875400543212891e+00,-7.699752330780029297e+00,-3.423708438873291016e+00,-3.852844238281250000e+00,-1.220703125000000000e-01,4.272460937500000000e-01
1.026685333251953125e+01,-5.456385612487792969e+00,-7.754819393157958984e+00,-3.457227230072021040e+00,-3.784179687500000000e+00,-3.051757812500000000e-02,4.959106445312500000e-01
1.028215456008911133e+01,-5.456385612487792969e+00,-7.762001991271972656e+00,-3.457227230072021040e+00,-3.677368164062500000e+00,3.738403320312500000e-01,6.408691406250000000e-01
1.029390716552734375e+01,-5.477933406829833984e+00,-7.754819393157958984e+00,-3.476380825042724609e+00,-3.608703613281250000e+00,-3.051757812500000000e-02,6.408691406250000000e-01
1.030903148651123047e+01,-5.501875400543212891e+00,-7.668627738952636719e+00,-3.548206806182861328e+00,-3.456115722656250000e+00,-4.959106445312500000e-01,6.408691406250000000e-01
1.032423782348632812e+01,-5.477933406829833984e+00,-7.668627738952636719e+00,-3.548206806182861328e+00,-3.456115722656250000e+00,-4.959106445312500000e-01,5.645751953125000000e-01
1.033535766601562500e+01,-5.442020416259765625e+00,-7.668627738952636719e+00,-3.505111217498779741e+00,-3.463745117187500000e+00,-4.959106445312500000e-01,5.493164062500000000e-01
1.035111188888549805e+01,-5.442020416259765625e+00,-7.697358131408691406e+00,-3.505111217498779741e+00,-3.555297851562500000e+00,6.103515625000000000e-01,5.493164062500000000e-01
1.036221575736999512e+01,-5.453991413116455078e+00,-7.647079944610595703e+00,-3.541024208068848100e+00,-3.463745117187500000e+00,-4.425048828125000000e-01,5.111694335937500000e-01
1.037751173973083496e+01,-5.552153587341308594e+00,-7.647079944610595703e+00,-3.543418407440185103e+00,-3.532409667968750000e+00,-4.425048828125000000e-01,3.814697265625000000e-01
1.038963985443115234e+01,-5.473145008087158203e+00,-7.647079944610595703e+00,-3.560177803039550781e+00,-3.089904785156250000e+00,-4.501342773437500000e-01,3.814697265625000000e-01
1.040461897850036621e+01,-5.473145008087158203e+00,-7.647079944610595703e+00,-3.560177803039550781e+00,-3.379821777343750000e+00,-5.111694335937500000e-01,4.348754882812500000e-01
1.041969799995422363e+01,-5.473145008087158203e+00,-7.666233539581298828e+00,-3.560177803039550781e+00,-3.379821777343750000e+00,-5.950927734375000000e-01,5.416870117187500000e-01
1.043396568298339844e+01,-5.470750808715820312e+00,-7.666233539581298828e+00,-3.531447410583496094e+00,-3.402709960937500000e+00,-5.111694335937500000e-01,4.348754882812500000e-01
1.044608235359191895e+01,-5.482721805572509766e+00,-7.666233539581298828e+00,-3.545812606811523438e+00,-3.440856933593750000e+00,-5.950927734375000000e-01,5.416870117187500000e-01
1.045825982093811035e+01,-5.497087001800537109e+00,-7.697358131408691406e+00,-3.545812606811523438e+00,-3.486633300781250000e+00,-5.950927734375000000e-01,7.934570312500000000e-01
1.047607517242431641e+01,-5.497087001800537109e+00,-7.656656742095947266e+00,-3.562572002410888672e+00,-3.486633300781250000e+00,-5.950927734375000000e-01,7.934570312500000000e-01
1.048842740058898926e+01,-5.470750808715820312e+00,-7.644685745239257812e+00,-3.562572002410888672e+00,-3.486633300781250000e+00,-5.340576171875000000e-01,6.027221679687500000e-01
1.050060939788818359e+01,-5.468356609344482422e+00,-7.644685745239257812e+00,-3.562572002410888672e+00,-3.219604492187500000e+00,-2.670288085937500000e-01,2.975463867187500000e-01
1.051803398132324219e+01,-5.468356609344482422e+00,-7.644685745239257812e+00,-3.545812606811523438e+00,-3.425598144531250000e+00,-5.340576171875000000e-01,3.738403320312500000e-01
1.052873516082763672e+01,-5.465962409973144531e+00,-7.642291545867919922e+00,-3.560177803039550781e+00,-3.318786621093750000e+00,-2.670288085937500000e-01,3.738403320312500000e-01
1.054288792610168457e+01,-5.442020416259765625e+00,-7.611166954040527344e+00,-3.560177803039550781e+00,-3.379821777343750000e+00,-3.662109375000000000e-01,4.348754882812500000e-01
1.055698585510253906e+01,-5.442020416259765625e+00,-7.642291545867919922e+00,-3.560177803039550781e+00,-3.379821777343750000e+00,-2.593994140625000000e-01,4.348754882812500000e-01
1.056985902786254883e+01,-5.442020416259765625e+00,-7.637503147125244141e+00,-3.574542999267578125e+00,-3.463745117187500000e+00,1.296997070312500000e-01,5.874633789062500000e-01
1.058120322227478027e+01,-5.511452198028564453e+00,-7.637503147125244141e+00,-3.574542999267578125e+00,-3.517150878906250000e+00,1.296997070312500000e-01,5.874633789062500000e-01
1.059900474548339844e+01,-5.439626216888427734e+00,-7.637503147125244141e+00,-3.665522813796997070e+00,-3.517150878906250000e+00,-2.136230468750000000e-01,6.561279296875000000e-01
1.060969424247741699e+01,-5.461174011230468750e+00,-7.685387134552001953e+00,-3.667917013168334961e+00,-2.655029296875000000e+00,-5.111694335937500000e-01,8.392333984375000000e-01
1.062352705001831055e+01,-5.461174011230468750e+00,-7.685387134552001953e+00,-3.667917013168334961e+00,-2.655029296875000000e+00,-4.348754882812500000e-01,8.239746093750000000e-01
1.064092636108398438e+01,-5.461174011230468750e+00,-7.623137950897216797e+00,-3.682282209396361417e+00,-2.265930175781250000e+00,-5.111694335937500000e-01,8.392333984375000000e-01
1.065138959884643555e+01,-5.427655220031738281e+00,-7.623137950897216797e+00,-3.691859006881713867e+00,-2.380371093750000000e+00,-1.289367675781250000e+00,9.841918945312500000e-01
1.066527915000915527e+01,-5.427655220031738281e+00,-7.572859764099121094e+00,-3.691859006881713867e+00,-1.892089843750000000e+00,-1.289367675781250000e+00,9.841918945312500000e-01
1.067764306068420410e+01,-5.509057998657226562e+00,-7.613561153411865234e+00,-3.660734415054320845e+00,-2.380371093750000000e+00,-1.220703125000000000e+00,3.433227539062500000e-01
1.069311475753784180e+01,-5.521028995513916016e+00,-7.613561153411865234e+00,-3.552995204925537109e+00,-1.930236816406250000e+00,-5.187988281250000000e-01,3.433227539062500000e-01
1.070737695693969727e+01,-5.580883979797363281e+00,-7.687781333923339844e+00,-3.526659011840820312e+00,-2.761840820312500000e+00,-1.220703125000000000e+00,1.182556152343750000e+00
1.072014141082763672e+01,-5.580883979797363281e+00,-7.812280178070068359e+00,-3.526659011840820312e+00,-2.761840820312500000e+00,-2.975463867187500000e-01,1.182556152343750000e+00
1.073470711708068848e+01,-5.540182590484619141e+00,-7.812280178070068359e+00,-3.598484992980957031e+00,-2.761840820312500000e+00,-1.266479492187500000e+00,8.163452148437500000e-01
1.074711322784423828e+01,-5.521028995513916016e+00,-7.592013359069824219e+00,-3.598484992980957031e+00,-2.754211425781250000e+00,-2.975463867187500000e-01,8.163452148437500000e-01
1.076161265373229980e+01,-5.521028995513916016e+00,-7.220911979675292969e+00,-2.937685489654541016e+00,-2.754211425781250000e+00,-1.266479492187500000e+00,-2.059936523437500000e-01
1.077337527275085449e+01,-5.401319026947021484e+00,-7.220911979675292969e+00,-2.937685489654541016e+00,-3.417968750000000000e+00,1.144409179687500000e+00,-1.937866210937500000e+00
1.078879356384277344e+01,-5.542576789855957031e+00,-7.771578788757324219e+00,-3.392583847045898438e+00,-3.417968750000000000e+00,-1.976013183593750000e+00,-1.937866210937500000e+00
1.080115008354187012e+01,-5.542576789855957031e+00,-7.771578788757324219e+00,-3.416525840759277344e+00,-3.417968750000000000e+00,-2.365112304687500000e+00,-1.213073730468750000e+00
1.081575894355773926e+01,-5.542576789855957031e+00,-7.654262542724609375e+00,-3.416525840759277344e+00,-4.623413085937500000e+00,-2.365112304687500000e+00,-1.213073730468750000e+00
1.083095192909240723e+01,-5.492298603057861328e+00,-7.491456985473632812e+00,-3.711012601852416992e+00,-4.623413085937500000e+00,-8.316040039062500000e-01,-2.082824707031250000e+00
1.084309220314025879e+01,-5.487510204315185547e+00,-7.572859764099121094e+00,-3.711012601852416992e+00,-4.241943359375000000e+00,3.402709960937500000e+00,-2.082824707031250000e+00
1.085754585266113281e+01,-5.430049419403076172e+00,-7.491456985473632812e+00,-3.435679435729980469e+00,-4.241943359375000000e+00,3.402709960937500000e+00,-2.082824707031250000e+00
1.086958956718444824e+01,-5.140350818634033203e+00,-7.572859764099121094e+00,-3.435679435729980469e+00,-5.012512207031250000e+00,3.440856933593750000e+00,-3.524780273437500000e+00
1.088424754142761230e+01,-5.116408824920654297e+00,-7.611166954040527344e+00,-4.141968727111816406e+00,-5.012512207031250000e+00,0.000000000000000000e+00,-3.524780273437500000e+00
1.089956498146057129e+01,-5.116408824920654297e+00,-7.611166954040527344e+00,-4.141968727111816406e+00,-5.012512207031250000e+00,4.570007324218750000e+00,-4.386901855468750000e+00
1.091131877899169922e+01,-4.745307922363281250e+00,-7.611166954040527344e+00,-4.355052947998046875e+00,-7.026672363281250000e+00,6.942749023437500000e+00,-1.686096191406250000e+00
1.092725920677185059e+01,-5.413290023803710938e+00,-7.663839340209960938e+00,-3.361459016799926758e+00,-7.026672363281250000e+00,6.942749023437500000e+00,-6.294250488281250000e+00
1.093839907646179199e+01,-5.391742229461669922e+00,-7.663839340209960938e+00,-3.361459016799926758e+00,-4.158020019531250000e+00,3.761291503906250000e+00,-3.578186035156250000e+00
1.095341110229492188e+01,-5.391742229461669922e+00,-7.388506412506102627e+00,-3.071760654449462891e+00,-4.158020019531250000e+00,-1.823425292968750000e+00,-3.578186035156250000e+00
1.096578001976013184e+01,-5.058948040008544922e+00,-7.388506412506102627e+00,-3.071760654449462891e+00,-5.226135253906250000e+00,-2.830505371093750000e+00,-1.716613769531250000e+00
1.098048901557922363e+01,-5.058948040008544922e+00,-7.869740962982177734e+00,-3.672705411911010298e+00,-5.226135253906250000e+00,-2.830505371093750000e+00,-1.220703125000000000e-01
1.099256277084350586e+01,-5.145139217376708984e+00,-7.869740962982177734e+00,-3.672705411911010298e+00,-3.730773925781250000e+00,-1.731872558593750000e+00,4.959106445312500000e-01
1.100756788253784180e+01,-5.145139217376708984e+00,-7.457938194274902344e+00,-3.004723072052001953e+00,-3.730773925781250000e+00,1.129150390625000000e+00,-1.220703125000000000e-01
1.102494311332702637e+01,-5.389348030090332031e+00,-7.457938194274902344e+00,-3.004723072052001953e+00,-7.774353027343750000e+00,5.195617675781250000e+00,-4.417419433593750000e+00
1.103601384162902832e+01,-5.135562419891357422e+00,-7.469909191131591797e+00,-3.124433279037476030e+00,-7.774353027343750000e+00,5.195617675781250000e+00,-4.417419433593750000e+00
1.104963040351867676e+01,-5.300762653350830078e+00,-7.469909191131591797e+00,-3.627215623855590820e+00,-3.807067871093750000e+00,1.510620117187500000e+00,-3.433227539062500000e+00
1.106384468078613281e+01,-5.300762653350830078e+00,-7.443572998046875000e+00,-3.462015628814697266e+00,-3.807067871093750000e+00,1.510620117187500000e+00,-3.433227539062500000e+00
1.107713198661804199e+01,-5.300762653350830078e+00,-7.443572998046875000e+00,-3.627215623855590820e+00,-8.201599121093750000e+00,1.510620117187500000e+00,-3.433227539062500000e+00
1.108822560310363770e+01,-5.631162166595458984e+00,-8.298302650451660156e+00,-3.991134166717528853e+00,-8.201599121093750000e+00,-1.167297363281250000e+00,-2.334594726562500000e+00
1.110599851608276367e+01,-5.532999992370605469e+00,-8.298302650451660156e+00,-4.295197963714599609e+00,-4.470825195312500000e+00,-2.372741699218750000e+00,3.128051757812500000e-01
1.111928415298461914e+01,-5.532999992370605469e+00,-8.032546997070312500e+00,-3.991134166717528853e+00,-3.288269042968750000e+00,-2.372741699218750000e+00,1.831054687500000000e+00
1.113042140007019043e+01,-5.518634796142578125e+00,-7.903259754180908203e+00,-3.981557369232177734e+00,-3.288269042968750000e+00,-1.014709472656250000e+00,3.128051757812500000e-01
1.114802074432373047e+01,-5.489904403686523438e+00,-7.850587368011474609e+00,-3.981557369232177734e+00,-3.288269042968750000e+00,-1.014709472656250000e+00,4.730224609375000000e-01
1.115940451622009277e+01,-5.216965198516845703e+00,-7.843404769897460938e+00,-3.981557369232177734e+00,-4.920959472656250000e+00,-1.014709472656250000e+00,-3.021240234375000000e+00
1.117248749732971191e+01,-5.216965198516845703e+00,-7.843404769897460938e+00,-4.101267337799072266e+00,-4.920959472656250000e+00,-2.960205078125000000e+00,4.730224609375000000e-01
1.118704438209533691e+01,-5.216965198516845703e+00,-7.987056732177734375e+00,-3.725377798080443892e+00,-4.920959472656250000e+00,-1.319885253906250000e+00,5.569458007812500000e-01
1.120026969909667969e+01,-5.236118793487548828e+00,-7.987056732177734375e+00,-3.725377798080443892e+00,-4.318237304687500000e+00,-4.386901855468750000e+00,3.089904785156250000e+00
1.121220469474792480e+01,-5.216965198516845703e+00,-7.939172744750976562e+00,-3.725377798080443892e+00,-4.318237304687500000e+00,-1.319885253906250000e+00,3.089904785156250000e+00
1.122913241386413574e+01,-5.363011837005615234e+00,-7.934384346008300781e+00,-3.758896589279174805e+00,-4.318237304687500000e+00,-1.266479492187500000e+00,-1.296997070312500000e-01
1.124158453941345215e+01,-5.363011837005615234e+00,-7.934384346008300781e+00,-3.758896589279174805e+00,-2.899169921875000000e+00,-6.332397460937500000e-01,-1.510620117187500000e+00
1.125317287445068359e+01,-5.379771232604980469e+00,-7.934384346008300781e+00,-3.833116769790649414e+00,-1.647949218750000000e+00,-6.332397460937500000e-01,-5.874633789062500000e-01
1.126900148391723633e+01,-5.382165431976318359e+00,-7.802703380584716797e+00,-3.734954595565795898e+00,-1.312255859375000000e+00,-3.890991210937500000e-01,-2.838134765625000000e+00
1.128098726272583008e+01,-5.379771232604980469e+00,-7.671021938323974609e+00,-3.665522813796997070e+00,-1.312255859375000000e+00,-3.890991210937500000e-01,-2.838134765625000000e+00
1.129558825492858887e+01,-5.746084213256835938e+00,-7.802703380584716797e+00,-3.591302394866943803e+00,-1.724243164062500000e+00,-3.890991210937500000e-01,-2.838134765625000000e+00
1.130711889266967773e+01,-5.671863555908203125e+00,-7.838616371154785156e+00,-3.591302394866943803e+00,-7.217407226562500000e+00,-6.484985351562500000e-01,-1.449584960937500000e+00
1.132253980636596680e+01,-5.746084213256835938e+00,-7.838616371154785156e+00,-4.333505153656005859e+00,-7.217407226562500000e+00,-9.078979492187500000e-01,-1.014709472656250000e+00
1.133805084228515625e+01,-5.671863555908203125e+00,-7.852981567382812500e+00,-4.333505153656005859e+00,-2.433776855468750000e+00,-9.078979492187500000e-01,-1.014709472656250000e+00
1.135000085830688477e+01,-5.300762653350830078e+00,-7.735665798187255859e+00,-3.770867586135863814e+00,-4.653930664062500000e-01,-9.078979492187500000e-01,-1.014709472656250000e+00
1.136436247825622559e+01,-5.207388401031494141e+00,-7.654262542724609375e+00,-3.742137193679809570e+00,-3.738403320312500000e-01,2.548217773437500000e+00,-6.408691406250000000e+00
1.137692570686340332e+01,-5.207388401031494141e+00,-7.505822181701660156e+00,-3.117250442504882812e+00,-4.653930664062500000e-01,2.548217773437500000e+00,-6.408691406250000000e+00
1.139184880256652832e+01,-5.573701381683349609e+00,-7.587224960327148438e+00,-3.117250442504882812e+00,-7.011413574218750000e+00,-3.166198730468750000e+00,3.120422363281250000e+00
1.140296959877014160e+01,-5.638344764709472656e+00,-7.587224960327148438e+00,-3.392583847045898438e+00,-8.163452148437500000e+00,-3.166198730468750000e+00,3.120422363281250000e+00
1.141910552978515625e+01,-5.638344764709472656e+00,-7.898471355438232422e+00,-3.833116769790649414e+00,-8.163452148437500000e+00,3.585815429687500000e-01,8.544921875000000000e-01
1.143100428581237793e+01,-5.274426460266113281e+00,-8.195352554321289062e+00,-3.936067581176757812e+00,-8.163452148437500000e+00,3.585815429687500000e-01,-4.730224609375000000e-01
1.144593286514282227e+01,-5.274426460266113281e+00,-8.209717750549316406e+00,-3.936067581176757812e+00,-9.468078613281250000e+00,-2.349853515625000000e+00,-4.730224609375000000e-01
1.146116590499877930e+01,-5.272032260894775391e+00,-8.209717750549316406e+00,-3.936067581176757812e+00,-4.425048828125000000e+00,-1.452636718750000000e+01,4.974365234375000000e+00
1.147265863418579102e+01,-5.396530628204345703e+00,-7.745242595672607422e+00,-3.878606796264647993e+00,-4.425048828125000000e+00,-1.452636718750000000e+01,4.974365234375000000e+00
1.148815035820007324e+01,-5.480327606201171875e+00,-7.445967197418212891e+00,-3.308786630630493164e+00,-4.425048828125000000e+00,-3.005981445312500000e+00,-3.295898437500000000e+00
1.150009393692016602e+01,-5.480327606201171875e+00,-7.445967197418212891e+00,-3.095702648162841797e+00,-6.134033203125000000e+00,-1.907348632812500000e+00,-3.295898437500000000e+00
1.151456761360168457e+01,-4.771644115447998047e+00,-7.247248649597167969e+00,-3.095702648162841797e+00,-7.965087890625000000e+00,-1.907348632812500000e+00,-1.892089843750000000e+00
1.152710199356079102e+01,-4.771644115447998047e+00,-7.759607791900634766e+00,-3.134010076522827148e+00,-9.757995605468750000e+00,3.242492675781250000e+00,-1.739501953125000000e+00
1.154127383232116699e+01,-4.912901878356933594e+00,-7.359776020050048828e+00,-3.969586372375487837e+00,-7.965087890625000000e+00,3.242492675781250000e+00,-4.806518554687500000e-01
1.155699038505554199e+01,-5.595249176025390625e+00,-8.147468566894531250e+00,-3.969586372375487837e+00,-3.906250000000000000e+00,-5.279541015625000000e+00,-1.350402832031250000e+00
1.156806302070617676e+01,-5.595249176025390625e+00,-7.558494567871093750e+00,-3.557783603668212891e+00,-3.906250000000000000e+00,-5.279541015625000000e+00,-1.350402832031250000e+00
1.158353972434997559e+01,-5.238513469696044922e+00,-7.647079944610595703e+00,-3.557783603668212891e+00,-9.986877441406250000e+00,-5.279541015625000000e+00,-1.350402832031250000e+00
1.159561395645141602e+01,-4.924872875213623047e+00,-7.647079944610595703e+00,-3.749319791793823242e+00,-1.113891601562500000e+01,-4.081726074218750000e+00,-1.159667968750000000e+00
1.161008882522583008e+01,-4.924872875213623047e+00,-7.987056732177734375e+00,-3.938461780548096147e+00,-1.137542724609375000e+01,-7.194519042968750000e+00,2.632141113281250000e+00
1.162250304222106934e+01,-4.972756862640380859e+00,-7.987056732177734375e+00,-3.938461780548096147e+00,-1.137542724609375000e+01,-4.928588867187500000e+00,2.632141113281250000e+00
1.163744187355041504e+01,-4.972756862640380859e+00,-7.987056732177734375e+00,-3.921702384948730469e+00,-1.137542724609375000e+01,-4.928588867187500000e+00,-1.068115234375000000e+00
1.165491199493408203e+01,-5.243301868438720703e+00,-7.826645374298095703e+00,-3.921702384948730469e+00,-1.379394531250000000e+01,-8.926391601562500000e-01,-2.403259277343750000e+00
1.166545414924621582e+01,-5.243301868438720703e+00,-7.934384346008300781e+00,-3.921702384948730469e+00,-1.379394531250000000e+01,-8.926391601562500000e-01,-2.403259277343750000e+00
1.168008947372436523e+01,-5.360617637634277344e+00,-7.884106159210205078e+00,-3.588908195495605025e+00,-1.379394531250000000e+01,-1.853942871093750000e+00,-2.403259277343750000e+00
1.169388413429260254e+01,-5.360617637634277344e+00,-7.884106159210205078e+00,-3.303998231887817383e+00,-5.241394042968750000e+00,-1.853942871093750000e+00,-1.045227050781250000e+00
1.170668482780456543e+01,-5.360617637634277344e+00,-7.884106159210205078e+00,-3.284844636917114258e+00,-1.455688476562500000e+01,-2.113342285156250000e+00,-2.578735351562500000e+00
1.171806883811950684e+01,-5.207388401031494141e+00,-7.417236804962158203e+00,-3.284844636917114258e+00,-5.073547363281250000e+00,-2.113342285156250000e+00,-1.678466796875000000e-01
1.173596620559692383e+01,-5.051765441894531250e+00,-7.417236804962158203e+00,-3.284844636917114258e+00,-8.392333984375000000e+00,-2.113342285156250000e+00,-2.578735351562500000e+00
1.174930262565612793e+01,-4.989516258239746094e+00,-7.407660007476806641e+00,-3.203441858291625977e+00,-8.392333984375000000e+00,3.448486328125000000e+00,-3.913879394531250000e+00
1.176057386398315430e+01,-4.788403511047363281e+00,-7.407660007476806641e+00,-3.203441858291625977e+00,-1.175689697265625000e+01,3.784179687500000000e+00,-3.913879394531250000e+00
1.177806067466735840e+01,-4.788403511047363281e+00,-7.778761386871337891e+00,-3.222595453262329102e+00,-1.175689697265625000e+01,3.784179687500000000e+00,5.264282226562500000e-01
1.178898596763610840e+01,-5.322310447692871094e+00,-7.955932140350341797e+00,-3.610455989837647373e+00,-7.858276367187500000e+00,-2.876281738281250000e+00,3.089904785156250000e+00
1.180329060554504395e+01,-5.671863555908203125e+00,-7.778761386871337891e+00,-3.222595453262329102e+00,-7.858276367187500000e+00,-2.876281738281250000e+00,3.089904785156250000e+00
1.181705498695373535e+01,-5.322310447692871094e+00,-7.955932140350341797e+00,-3.610455989837647373e+00,-8.743286132812500000e+00,3.234863281250000000e+00,-3.761291503906250000e+00
1.182986092567443848e+01,-4.884171485900878906e+00,-8.113949775695800781e+00,-4.185064315795898438e+00,-1.375579833984375000e+01,3.234863281250000000e+00,-3.761291503906250000e+00
1.184189224243164062e+01,-4.884171485900878906e+00,-8.135497093200683594e+00,-4.982333660125732422e+00,-1.503753662109375000e+01,2.441406250000000000e+00,-8.697509765625000000e-01
1.185892820358276367e+01,-5.013458251953125000e+00,-8.135497093200683594e+00,-4.982333660125732422e+00,-1.375579833984375000e+01,-1.495361328125000000e+00,4.814147949218750000e+00
1.186889791488647461e+01,-5.013458251953125000e+00,-8.396465301513671875e+00,-4.362235546112060547e+00,-8.483886718750000000e+00,-1.495361328125000000e+00,6.263732910156250000e+00
1.188321089744567871e+01,-5.013458251953125000e+00,-7.927201747894287109e+00,-4.268861770629882812e+00,-8.483886718750000000e+00,-1.754760742187500000e-01,6.263732910156250000e+00
1.189868092536926270e+01,-5.037400245666503906e+00,-7.113173007965087891e+00,-3.268085241317749023e+00,-1.329040527343750000e+01,6.568908691406250000e+00,7.934570312500000000e-01
1.191023921966552734e+01,-5.037400245666503906e+00,-7.113173007965087891e+00,-3.268085241317749023e+00,-1.329040527343750000e+01,6.568908691406250000e+00,-3.570556640625000000e+00
1.192530035972595215e+01,-4.223371505737304688e+00,-7.213729381561279297e+00,-2.801215887069702148e+00,-7.331848144531250000e+00,5.119323730468750000e+00,-6.187438964843750000e+00
1.193716502189636230e+01,-3.141192674636840820e+00,-7.405265808105468750e+00,-4.704606056213378906e+00,-7.331848144531250000e+00,2.593994140625000000e-01,-6.187438964843750000e+00
1.195290088653564453e+01,-3.141192674636840820e+00,-9.131484985351562500e+00,-4.137180328369140625e+00,-1.446533203125000000e+01,3.379821777343750000e+00,1.045227050781250000e+00
1.196816754341125488e+01,-5.116408824920654297e+00,-9.131484985351562500e+00,-5.590460777282714844e+00,-1.446533203125000000e+01,2.593994140625000000e-01,5.096435546875000000e+00
1.198003911972045898e+01,-5.116408824920654297e+00,-8.008605003356933594e+00,-4.137180328369140625e+00,-6.134033203125000000e+00,3.379821777343750000e+00,1.045227050781250000e+00
1.199154639244079590e+01,-5.729324340820312500e+00,-7.570465564727783203e+00,-2.827552080154418945e+00,-6.134033203125000000e+00,3.395080566406250000e+00,-3.494262695312500000e+00
1.200627350807189941e+01,-5.729324340820312500e+00,-6.615179061889648438e+00,-2.827552080154418945e+00,-1.647186279296875000e+01,3.395080566406250000e+00,-3.494262695312500000e+00
1.202153682708740234e+01,-5.729324340820312500e+00,-6.615179061889648438e+00,-2.935291290283203125e+00,-1.647186279296875000e+01,3.395080566406250000e+00,-9.231567382812500000e-01
1.203374481201171875e+01,-5.118803024291992188e+00,-7.709329128265380859e+00,-4.340687751770020419e+00,-9.910583496093750000e+00,-6.851196289062500000e+00,-7.629394531250000000e-01
1.204908680915832520e+01,-4.850652694702148438e+00,-7.881711959838867188e+00,-4.340687751770020419e+00,-9.910583496093750000e+00,2.418518066406250000e+00,-7.629394531250000000e-01
1.206063580513000488e+01,-4.850652694702148438e+00,-7.709329128265380859e+00,-3.742137193679809570e+00,-1.377105712890625000e+01,2.418518066406250000e+00,-8.010864257812500000e-01
1.207522988319396973e+01,-4.235342502593994141e+00,-7.881711959838867188e+00,-3.742137193679809570e+00,-1.448822021484375000e+01,8.895874023437500000e+00,-1.441955566406250000e+00
1.208757662773132324e+01,-4.235342502593994141e+00,-7.292738437652587891e+00,-2.908955097198486328e+00,-1.448822021484375000e+01,8.895874023437500000e+00,-1.892089843750000000e+00
1.210216808319091797e+01,-3.933673381805419922e+00,-7.582436561584472656e+00,-4.661510467529296875e+00,-1.051330566406250000e+01,5.569458007812500000e-01,-1.892089843750000000e+00
1.211821508407592773e+01,-6.102819919586181641e+00,-7.161056995391845703e+00,-3.095702648162841797e+00,-9.246826171875000000e+00,5.569458007812500000e-01,-2.655029296875000000e+00
1.212940621376037598e+01,-6.490680694580078125e+00,-7.161056995391845703e+00,-3.095702648162841797e+00,-9.246826171875000000e+00,-3.288269042968750000e+00,1.525878906250000000e-01
1.214503622055053711e+01,-6.490680694580078125e+00,-7.161056995391845703e+00,-3.095702648162841797e+00,-9.246826171875000000e+00,3.150939941406250000e+00,1.525878906250000000e-01
1.215664172172546387e+01,-5.940014362335205078e+00,-7.742848396301268643e+00,-4.446032524108886719e+00,-9.384155273437500000e+00,3.150939941406250000e+00,4.638671875000000000e+00
1.217174530029296875e+01,-4.357447147369384766e+00,-8.032546997070312500e+00,-4.606443881988525391e+00,-9.574890136718750000e+00,3.150939941406250000e+00,4.638671875000000000e+00
1.218409514427185059e+01,-4.357447147369384766e+00,-8.032546997070312500e+00,-4.606443881988525391e+00,-9.933471679687500000e+00,6.462097167968750000e+00,-1.220703125000000000e+00
1.219879126548767090e+01,-5.487510204315185547e+00,-7.529764175415039062e+00,-3.105279445648193359e+00,-1.199340820312500000e+01,1.037597656250000000e+01,-1.220703125000000000e+00
1.221086263656616211e+01,-5.487510204315185547e+00,-7.529764175415039062e+00,-3.105279445648193359e+00,-1.199340820312500000e+01,1.037597656250000000e+01,5.111694335937500000e-01
1.222558569908142090e+01,-4.101267337799072266e+00,-8.233659744262695312e+00,-5.892130374908447266e+00,-1.199340820312500000e+01,-3.204345703125000000e-01,5.111694335937500000e-01
1.224028539657592773e+01,-4.101267337799072266e+00,-8.233659744262695312e+00,-5.892130374908447266e+00,-4.997253417968750000e+00,-2.380371093750000000e+00,-3.509521484375000000e-01
1.225288105010986328e+01,-3.885789394378662109e+00,-8.159439086914062500e+00,-6.129156112670898438e+00,-8.186340332031250000e+00,-3.204345703125000000e-01,-3.799438476562500000e+00
1.226778340339660645e+01,-5.231330394744873047e+00,-8.159439086914062500e+00,-5.870582580566406250e+00,-8.186340332031250000e+00,-7.011413574218750000e+00,-3.509521484375000000e-01
1.228201174736022949e+01,-3.165134668350220171e+00,-8.489839553833007812e+00,-6.129156112670898438e+00,-8.232116699218750000e+00,-1.777648925781250000e+00,-5.462646484375000000e+00
1.229431319236755371e+01,-3.347093820571899414e+00,-9.018958091735839844e+00,-5.762843608856201172e+00,-8.232116699218750000e+00,-6.904602050781250000e+00,2.098083496093750000e+00
1.230920433998107910e+01,-3.347093820571899414e+00,-9.018958091735839844e+00,-5.544970989227294922e+00,-8.232116699218750000e+00,-1.777648925781250000e+00,-5.119323730468750000e+00
1.232384753227233887e+01,-5.202600002288818359e+00,-8.317456245422363281e+00,-5.532999992370605469e+00,-8.422851562500000000e+00,3.684997558593750000e+00,-3.112792968750000000e+00
1.233695435523986816e+01,-5.202600002288818359e+00,-7.503427982330322266e+00,-5.300762653350830078e+00,-8.422851562500000000e+00,2.751922607421875000e+01,-5.119323730468750000e+00
1.234886908531188965e+01,-5.202600002288818359e+00,-7.527369976043701172e+00,-4.577713489532470703e+00,-8.422851562500000000e+00,8.773803710937500000e+00,-5.599975585937500000e+00
1.236601233482360840e+01,-4.288015365600585938e+00,-7.082048416137695312e+00,-4.577713489532470703e+00,-6.637573242187500000e+00,8.773803710937500000e+00,-5.599975585937500000e+00
1.237777447700500488e+01,-5.997475147247314453e+00,-7.082048416137695312e+00,-4.577713489532470703e+00,-1.126098632812500000e+01,8.773803710937500000e+00,-5.599975585937500000e+00
1.239074087142944336e+01,-4.288015365600585938e+00,-6.806715488433837891e+00,-3.198653459548950195e+00,-1.126098632812500000e+01,1.378631591796875000e+01,-1.564025878906250000e+00
1.240803623199462891e+01,-4.228159904479980469e+00,-6.806715488433837891e+00,-3.198653459548950195e+00,-1.126098632812500000e+01,1.378631591796875000e+01,-1.564025878906250000e+00
1.241871309280395508e+01,-4.228159904479980469e+00,-6.933608055114746094e+00,-3.914519786834716797e+00,-1.373291015625000000e+00,1.529693603515625000e+01,-1.564025878906250000e+00
1.243285298347473145e+01,-4.175487518310546875e+00,-7.821856975555419922e+00,-6.864176273345947266e+00,6.149291992187500000e+00,1.721191406250000000e+01,2.021789550781250000e+00
1.244699001312255859e+01,-1.601720929145812988e+00,-1.116895103454589844e+01,-1.053688144683838068e+01,9.978485107421876421e+01,1.721191406250000000e+01,2.295684814453125000e+01
1.246001911163330078e+01,-1.517923831939697266e+00,-1.116895103454589844e+01,-1.053688144683838068e+01,9.978485107421876421e+01,-1.605224609375000000e+01,2.295684814453125000e+01
1.247189593315124512e+01,-1.601720929145812988e+00,-1.116895103454589844e+01,-1.677617073059082031e+01,5.518341064453125000e+01,-1.324844360351562500e+02,2.185058593750000000e+01
1.248900246620178223e+01,-2.444479942321777344e+00,-1.447294902801513672e+01,-6.588842868804931641e+00,-3.054809570312500000e+01,-1.324844360351562500e+02,-2.528381347656250000e+01
1.250183296203613281e+01,-1.085531044006347656e+01,-1.447294902801513672e+01,-6.588842868804931641e+00,-3.685760498046875000e+01,-7.018280029296875000e+01,-4.997253417968750000e+01
1.251336073875427246e+01,-1.002452278137207031e+01,-5.956773757934570312e+00,-5.609614372253417969e+00,-3.054809570312500000e+01,-1.510620117187500000e+00,-2.528381347656250000e+01
1.252906036376953125e+01,-1.002452278137207031e+01,-5.025429248809815341e+00,1.101332753896712979e-01,3.303527832031250000e+00,3.981018066406250000e+01,-2.027893066406250000e+01
1.254067587852478027e+01,-4.058171749114990234e+00,-4.220977306365966797e+00,1.996764183044433594e+00,2.616882324218750000e+01,-1.510620117187500000e+00,-2.027893066406250000e+01
1.255598807334899902e+01,-2.578555107116699219e+00,-4.220977306365966797e+00,1.996764183044433594e+00,2.616882324218750000e+01,2.885437011718750000e+01,-2.027893066406250000e+01
1.256734752655029297e+01,-2.578555107116699219e+00,-4.563348293304443359e+00,-2.559401512145996094e+00,2.852630615234375000e+01,1.479339599609375000e+01,4.821777343750000000e+00
1.258255743980407715e+01,-4.407725334167480469e+00,-1.305558204650878729e+01,-4.520252704620361328e+00,1.204681396484375000e+01,1.479339599609375000e+01,2.933502197265625000e+01
1.259513783454895020e+01,-7.592013359069824219e+00,-1.305558204650878729e+01,-5.875370979309082031e+00,2.852630615234375000e+01,-8.605957031250000000e+00,2.933502197265625000e+01
1.260911750793457031e+01,-7.592013359069824219e+00,-9.425971984863279474e+00,-5.875370979309082031e+00,7.463836669921875000e+01,-9.552001953125000000e+00,6.340026855468750000e+00
1.262496900558471680e+01,-5.025429248809815341e+00,-8.451531410217285156e+00,-4.903325080871582031e+00,7.463836669921875000e+01,-8.605957031250000000e+00,-1.014709472656250000e+00
1.263673591613769531e+01,-5.025429248809815341e+00,-5.693411350250244141e+00,1.034295082092285156e+00,6.769561767578125000e+01,-7.736206054687500000e+00,-1.014709472656250000e+00
1.265201425552368164e+01,-5.990292549133300781e+00,-5.693411350250244141e+00,1.034295082092285156e+00,2.218627929687500000e+01,2.899169921875000000e-01,-1.014709472656250000e+00
1.266381168365478516e+01,-5.990292549133300781e+00,-7.127538204193115234e+00,-7.757213115692138672e-01,-4.173278808593750000e+00,4.493713378906250000e+00,-1.230621337890625000e+01
1.267826080322265625e+01,-4.352658748626708984e+00,-8.513781547546386719e+00,-1.690306425094604492e+00,-4.173278808593750000e+00,7.087707519531250000e+00,-1.230621337890625000e+01
1.269334793090820312e+01,-4.352658748626708984e+00,-8.513781547546386719e+00,-1.862688899040222390e+00,-4.173278808593750000e+00,7.087707519531250000e+00,4.119873046875000000e+00
1.270549893379211426e+01,-6.859387874603272373e+00,-8.513781547546386719e+00,-1.862688899040222390e+00,1.800537109375000000e+00,9.155273437500000000e+00,4.119873046875000000e+00
1.272102141380310059e+01,-6.859387874603272373e+00,-7.592013359069824219e+00,-2.264914751052856445e+00,-5.004882812500000000e+00,2.738952636718750000e+00,-1.105499267578125000e+01
1.273296642303466797e+01,-2.456450939178466797e+00,-8.757989883422851562e+00,-3.155557870864868164e+00,-5.004882812500000000e+00,2.738952636718750000e+00,-1.105499267578125000e+01
1.274784159660339355e+01,-2.456450939178466797e+00,-8.655038833618164062e+00,-3.440467834472655806e+00,-5.004882812500000000e+00,2.738952636718750000e+00,-5.050659179687500000e+00
1.276239848136901855e+01,-7.316680431365966797e+00,-8.655038833618164062e+00,-3.440467834472655806e+00,7.476806640625000000e-01,-1.411437988281250000e+00,5.004882812500000000e+00
1.277471947669982910e+01,-7.316680431365966797e+00,-8.001421928405761719e+00,-2.145204782485961914e+00,7.476806640625000000e-01,7.774353027343750000e+00,-5.050659179687500000e+00
1.278930997848510742e+01,-3.107673645019531250e+00,-8.001421928405761719e+00,-2.145204782485961914e+00,-5.912780761718750000e+00,-2.975463867187500000e-01,5.004882812500000000e+00
1.280124831199645996e+01,-3.107673645019531250e+00,-8.259995460510253906e+00,-2.734178304672241211e+00,-5.912780761718750000e+00,2.769470214843750000e+00,7.339477539062500000e+00
1.281691980361938477e+01,-5.532999992370605469e+00,-8.259995460510253906e+00,-2.734178304672241211e+00,-6.896972656250000000e+00,2.365112304687500000e-01,7.339477539062500000e+00
1.282880282402038574e+01,-5.532999992370605469e+00,-8.259995460510253906e+00,-2.734178304672241211e+00,-4.165649414062500000e+00,2.365112304687500000e-01,1.579284667968750000e+00
1.284393429756164551e+01,-5.106832027435302734e+00,-7.960720539093017578e+00,-1.561019539833068848e+00,-4.165649414062500000e+00,2.365112304687500000e-01,-1.716613769531250000e+00
1.285824680328369141e+01,-5.106832027435302734e+00,-7.960720539093017578e+00,-2.609679698944091797e+00,-4.165649414062500000e+00,-9.155273437500000000e-02,-1.716613769531250000e+00
1.287104797363281250e+01,-5.190629005432128906e+00,-7.912836551666259766e+00,-2.609679698944091797e+00,1.388549804687500000e+00,1.106262207031250000e+00,-1.716613769531250000e+00
1.288597059249877930e+01,-5.190629005432128906e+00,-7.912836551666259766e+00,-2.609679698944091797e+00,-7.331848144531250000e+00,-9.155273437500000000e-02,9.994506835937500000e-01
1.289801573753356934e+01,-4.513070106506347656e+00,-8.066065788269042969e+00,-2.973598480224609375e+00,-8.010864257812500000e-01,-8.773803710937500000e-01,9.994506835937500000e-01
1.291527962684631348e+01,-4.513070106506347656e+00,-8.688557624816894531e+00,-2.552218914031982422e+00,-4.631042480468750000e+00,-1.296997070312500000e+00,5.470275878906250000e+00
1.292617535591125488e+01,-5.671863555908203125e+00,-8.688557624816894531e+00,-3.655946016311645508e+00,-8.010864257812500000e-01,-8.773803710937500000e-01,5.470275878906250000e+00
1.294006919860839844e+01,-5.671863555908203125e+00,-8.240841865539550781e+00,-2.489969730377197266e+00,-3.517150878906250000e+00,1.708984375000000000e+00,-4.211425781250000000e+00
1.295697140693664551e+01,-4.247313976287841797e+00,-8.240841865539550781e+00,-3.143586874008178711e+00,-3.517150878906250000e+00,2.441406250000000000e+00,-4.211425781250000000e+00
1.296683621406555176e+01,-4.247313976287841797e+00,-8.427589416503906250e+00,-2.755726099014282227e+00,-3.517150878906250000e+00,1.708984375000000000e+00,-1.167297363281250000e+00
1.298173236846923828e+01,-4.982333660125732422e+00,-8.427589416503906250e+00,-2.755726099014282227e+00,-3.013610839843750000e+00,1.052856445312500000e+00,-1.167297363281250000e+00
1.299594974517822266e+01,-4.982333660125732422e+00,-8.427589416503906250e+00,-2.339134931564331055e+00,-3.013610839843750000e+00,-1.701354980468750000e+00,-2.082824707031250000e+00
1.300860571861267090e+01,-4.865017890930175781e+00,-8.444349288940429688e+00,-2.339134931564331055e+00,4.196166992187500000e-01,-1.823425292968750000e+00,-2.082824707031250000e+00
1.302042055130004883e+01,-4.865017890930175781e+00,-8.444349288940429688e+00,-2.339134931564331055e+00,-1.655578613281250000e+00,-1.945495605468750000e+00,2.006530761718750000e+00
1.303795433044433594e+01,-4.989516258239746094e+00,-8.090007781982421875e+00,-2.643198728561401367e+00,-1.655578613281250000e+00,-1.823425292968750000e+00,2.006530761718750000e+00
1.305098962783813477e+01,-4.989516258239746094e+00,-8.090007781982421875e+00,-2.643198728561401367e+00,-3.265380859375000000e+00,-1.258850097656250000e+00,-1.686096191406250000e+00
1.306330561637878418e+01,-4.299986362457275391e+00,-8.090007781982421875e+00,-2.643198728561401367e+00,-3.265380859375000000e+00,1.815795898437500000e+00,-1.686096191406250000e+00
1.307995676994323730e+01,-4.299986362457275391e+00,-7.982268333435058594e+00,-2.260126352310180664e+00,-3.265380859375000000e+00,1.815795898437500000e+00,5.569458007812500000e-01
1.309034109115600586e+01,-5.200205802917480469e+00,-7.982268333435058594e+00,-2.260126352310180664e+00,-3.417968750000000000e+00,1.426696777343750000e+00,9.918212890625000000e-01
1.310475802421569824e+01,-5.200205802917480469e+00,-8.329427719116210938e+00,-2.647987127304077148e+00,-3.417968750000000000e+00,-6.637573242187500000e-01,9.918212890625000000e-01
1.311900520324707031e+01,-4.613626480102539062e+00,-8.477868080139160156e+00,-3.112462043762207031e+00,-3.417968750000000000e+00,-6.637573242187500000e-01,-8.392333984375000000e-01
1.313109779357910156e+01,-4.613626480102539062e+00,-8.329427719116210938e+00,-2.868253707885742188e+00,-2.601623535156250000e+00,2.136230468750000000e-01,-8.392333984375000000e-01
1.314609932899475098e+01,-5.063736438751220703e+00,-8.204929351806640625e+00,-2.868253707885742188e+00,-3.288269042968750000e+00,1.121520996093750000e+00,-8.392333984375000000e-01
1.316092801094055176e+01,-5.063736438751220703e+00,-8.140285491943359375e+00,-2.868253707885742188e+00,-2.601623535156250000e+00,1.159667968750000000e+00,-4.043579101562500000e-01
1.317358422279357910e+01,-4.374206542968750000e+00,-8.140285491943359375e+00,-2.667140722274780273e+00,-3.013610839843750000e+00,1.510620117187500000e+00,-4.043579101562500000e-01
1.318926429748535156e+01,-4.374206542968750000e+00,-8.145073890686035156e+00,-2.667140722274780273e+00,-3.013610839843750000e+00,1.159667968750000000e+00,1.609802246093750000e+00
1.320084500312805176e+01,-5.762843608856201172e+00,-8.391676902770996094e+00,-2.667140722274780273e+00,-3.013610839843750000e+00,2.136230468750000000e-01,1.609802246093750000e+00
1.321541547775268555e+01,-5.762843608856201172e+00,-8.480262756347656250e+00,-2.470816135406494141e+00,-2.410888671875000000e+00,2.136230468750000000e-01,-1.060485839843750000e+00
1.322756409645080566e+01,-4.647145271301269531e+00,-8.480262756347656250e+00,-2.470816135406494141e+00,-2.410888671875000000e+00,2.136230468750000000e-01,-1.060485839843750000e+00
1.324252510070800781e+01,-4.647145271301269531e+00,-8.192957878112792969e+00,-2.470816135406494141e+00,-2.487182617187500000e+00,1.411437988281250000e+00,2.822875976562500000e-01
1.325727581977844238e+01,-5.080495834350585938e+00,-8.135497093200683594e+00,-2.480392932891845703e+00,-3.807067871093750000e+00,7.705688476562500000e-01,2.822875976562500000e-01
1.326944160461425781e+01,-5.080495834350585938e+00,-8.192957878112792969e+00,-2.485181331634521040e+00,-3.738403320312500000e+00,7.705688476562500000e-01,5.340576171875000000e-02
1.328469014167785645e+01,-4.616020679473876953e+00,-8.271966934204101562e+00,-2.485181331634521040e+00,-3.807067871093750000e+00,-3.890991210937500000e-01,5.340576171875000000e-02
1.329660654067993164e+01,-4.616020679473876953e+00,-8.279149055480957031e+00,-2.750937700271606445e+00,-3.738403320312500000e+00,-5.187988281250000000e-01,3.326416015625000000e+00
1.331182646751403809e+01,-5.463568210601806641e+00,-8.271966934204101562e+00,-2.750937700271606445e+00,-4.249572753906250000e+00,-5.187988281250000000e-01,3.326416015625000000e+00
1.332626104354858398e+01,-5.463568210601806641e+00,-8.540117263793945312e+00,-2.652775526046752930e+00,-4.249572753906250000e+00,7.705688476562500000e-01,-7.400512695312500000e-01
1.333846306800842285e+01,-4.999093055725097656e+00,-8.796297073364257812e+00,-2.652775526046752930e+00,-4.508972167968750000e+00,7.705688476562500000e-01,-7.400512695312500000e-01
1.335349655151367188e+01,-4.999093055725097656e+00,-8.796297073364257812e+00,-2.652775526046752930e+00,-4.508972167968750000e+00,-9.689331054687500000e-01,1.045227050781250000e+00
1.336627388000488281e+01,-5.231330394744873047e+00,-8.176198959350585938e+00,-2.516305923461914062e+00,-4.508972167968750000e+00,-9.689331054687500000e-01,1.045227050781250000e+00
1.338117241859436035e+01,-5.231330394744873047e+00,-8.176198959350585938e+00,-2.516305923461914062e+00,-1.640319824218750000e+00,-7.629394531250000000e-02,4.272460937500000000e-01
1.339227533340454102e+01,-4.678269863128662109e+00,-8.200140953063964844e+00,-2.516305923461914062e+00,-1.846313476562500000e+00,1.045227050781250000e+00,4.272460937500000000e-01
1.340758585929870605e+01,-4.678269863128662109e+00,-8.200140953063964844e+00,-2.937685489654541016e+00,-1.846313476562500000e+00,1.045227050781250000e+00,2.128601074218750000e+00
1.342224073410034180e+01,-5.154716014862060547e+00,-8.200140953063964844e+00,-2.580949306488037109e+00,-2.067565917968750000e+00,1.045227050781250000e+00,2.128601074218750000e+00
1.343415927886962891e+01,-5.154716014862060547e+00,-8.267178535461425781e+00,-2.595314502716064453e+00,-4.096984863281250000e+00,9.994506835937500000e-01,-6.637573242187500000e-01
1.344990801811218262e+01,-4.666298866271972656e+00,-8.410830497741699219e+00,-2.595314502716064453e+00,-2.380371093750000000e+00,9.994506835937500000e-01,-6.637573242187500000e-01
1.346166682243347168e+01,-4.666298866271972656e+00,-8.410830497741699219e+00,-2.595314502716064453e+00,-3.715515136718750000e+00,5.569458007812500000e-01,1.014709472656250000e+00
1.347628831863403320e+01,-5.226541996002197266e+00,-8.298302650451660156e+00,-2.540247917175292969e+00,-3.715515136718750000e+00,3.128051757812500000e-01,1.014709472656250000e+00
1.348848557472229004e+01,-5.226541996002197266e+00,-8.298302650451660156e+00,-2.540247917175292969e+00,-3.768920898437500000e+00,3.128051757812500000e-01,-4.196166992187500000e-01
1.350293493270874023e+01,-4.728548049926757812e+00,-8.444349288940429688e+00,-2.779668092727661133e+00,-3.768920898437500000e+00,-3.662109375000000000e-01,-4.196166992187500000e-01
1.351883721351623535e+01,-4.728548049926757812e+00,-8.444349288940429688e+00,-2.779668092727661133e+00,-3.425598144531250000e+00,-5.111694335937500000e-01,2.067565917968750000e+00
1.353258824348449707e+01,-5.121197223663330078e+00,-8.408435821533203125e+00,-2.798821687698364258e+00,-3.425598144531250000e+00,-5.111694335937500000e-01,2.067565917968750000e+00
1.354797744750976562e+01,-5.121197223663330078e+00,-8.408435821533203125e+00,-2.846705675125122070e+00,-3.425598144531250000e+00,-5.340576171875000000e-01,-3.128051757812500000e-01
1.355876231193542480e+01,-4.826710700988769531e+00,-8.408435821533203125e+00,-2.846705675125122070e+00,-4.188537597656250000e+00,-1.068115234375000000e-01,-3.128051757812500000e-01
