# elapsed time, f1_acc_x, f1_acc_y, f1_acc_z, f1_gyro_x, f1_gyro_y, f1_gyro_z
9.563955068588256836e+00,-8.786720037460327148e-01,-8.875305175781250000e+00,-5.477933406829833984e+00,-3.768920898437500000e+00,3.814697265625000000e-02,5.950927734375000000e-01
9.578857183456420898e+00,-8.547300100326538086e-01,-8.875305175781250000e+00,-5.398924827575683594e+00,-3.768920898437500000e+00,3.814697265625000000e-02,6.103515625000000000e-01
9.590633153915405273e+00,-8.547300100326538086e-01,-8.820239067077636719e+00,-5.398924827575683594e+00,-3.761291503906250000e+00,-9.918212890625000000e-02,6.790161132812500000e-01
9.605328083038330078e+00,-8.427590131759643555e-01,-8.844181060791015625e+00,-5.427655220031738281e+00,-3.707885742187500000e+00,-9.918212890625000000e-02,6.790161132812500000e-01
9.617596626281738281e+00,-8.427590131759643555e-01,-8.844181060791015625e+00,-5.513846397399902344e+00,-3.707885742187500000e+00,-2.670288085937500000e-01,6.790161132812500000e-01
9.632754564285278320e+00,-8.379705548286437988e-01,-8.892065048217773438e+00,-5.513846397399902344e+00,-3.707885742187500000e+00,-4.806518554687500000e-01,6.790161132812500000e-01
9.644799232482910156e+00,-8.212111592292785645e-01,-8.923189163208007812e+00,-5.513846397399902344e+00,-3.540039062500000000e+00,-4.806518554687500000e-01,6.561279296875000000e-01
9.659881353378295898e+00,-8.379705548286437988e-01,-8.923189163208007812e+00,-5.504269599914550781e+00,-3.540039062500000000e+00,-2.288818359375000000e-02,9.613037109375000000e-01
9.674283742904663086e+00,-7.948749661445617676e-01,-8.836997985839843750e+00,-5.504269599914550781e+00,-3.822326660156250000e+00,-2.288818359375000000e-02,9.155273437500000000e-01
9.685894489288330078e+00,-7.948749661445617676e-01,-8.836997985839843750e+00,-5.544970989227294922e+00,-3.822326660156250000e+00,-2.059936523437500000e-01,9.155273437500000000e-01
9.701041936874389648e+00,-7.948749661445617676e-01,-8.836997985839843750e+00,-5.544970989227294922e+00,-3.623962402343750000e+00,-3.128051757812500000e-01,5.493164062500000000e-01
9.715665340423583984e+00,-8.188169598579406738e-01,-8.848969459533691406e+00,-5.528211593627929688e+00,-3.623962402343750000e+00,-3.128051757812500000e-01,5.493164062500000000e-01
9.728746175765991211e+00,-8.475474119186401367e-01,-8.911218643188476562e+00,-5.509057998657226562e+00,-3.707885742187500000e+00,-3.128051757812500000e-01,5.950927734375000000e-01
9.740832567214965820e+00,-8.379705548286437988e-01,-8.911218643188476562e+00,-5.528211593627929688e+00,-3.799438476562500000e+00,-3.662109375000000000e-01,6.179809570312500000e-01
9.757621049880981445e+00,-8.379705548286437988e-01,-8.872911453247070312e+00,-5.468356609344482422e+00,-3.799438476562500000e+00,-2.593994140625000000e-01,5.950927734375000000e-01
9.769419670104980469e+00,-8.379705548286437988e-01,-8.872911453247070312e+00,-5.415684223175048828e+00,-3.639221191406250000e+00,-3.051757812500000000e-02,5.264282226562500000e-01
9.782691240310668945e+00,-8.571242094039916992e-01,-8.872911453247070312e+00,-5.415684223175048828e+00,-3.578186035156250000e+00,-3.051757812500000000e-02,5.264282226562500000e-01
9.799688577651977539e+00,-8.571242094039916992e-01,-8.880093574523925781e+00,-5.482721805572509766e+00,-3.578186035156250000e+00,-1.754760742187500000e-01,6.484985351562500000e-01
9.810579776763916016e+00,-9.169792532920836292e-01,-8.880093574523925781e+00,-5.499481201171875000e+00,-3.616333007812500000e+00,-1.754760742187500000e-01,6.484985351562500000e-01
9.824143648147583008e+00,-8.571242094039916992e-01,-8.880093574523925781e+00,-5.499481201171875000e+00,-3.616333007812500000e+00,1.373291015625000000e-01,6.484985351562500000e-01
9.838678836822509766e+00,-9.169792532920836292e-01,-8.860939979553222656e+00,-5.499481201171875000e+00,-3.852844238281250000e+00,1.373291015625000000e-01,4.272460937500000000e-01
9.851607084274291992e+00,-8.427590131759643555e-01,-8.860939979553222656e+00,-5.501875400543212891e+00,-3.906250000000000000e+00,1.525878906250000000e-02,5.569458007812500000e-01
9.863167285919189453e+00,-8.714894056320190430e-01,-8.860939979553222656e+00,-5.501875400543212891e+00,-3.906250000000000000e+00,-1.525878906250000000e-01,4.959106445312500000e-01
9.880748748779296875e+00,-8.427590131759643555e-01,-8.877699851989746094e+00,-5.501875400543212891e+00,-3.684997558593750000e+00,-1.525878906250000000e-01,5.569458007812500000e-01
9.894026517868041992e+00,-8.714894056320190430e-01,-8.856151580810546875e+00,-5.468356609344482422e+00,-3.684997558593750000e+00,1.296997070312500000e-01,7.019042968750000000e-01
9.904902458190917969e+00,-8.643068075180053711e-01,-8.875305175781250000e+00,-5.463568210601806641e+00,-3.875732421875000000e+00,1.296997070312500000e-01,7.019042968750000000e-01
9.922559976577758789e+00,-9.768342971801757812e-01,-8.875305175781250000e+00,-5.463568210601806641e+00,-3.952026367187500000e+00,1.373291015625000000e-01,6.103515625000000000e-01
9.932985305786132812e+00,-8.643068075180053711e-01,-8.875305175781250000e+00,-5.442020416259765625e+00,-3.952026367187500000e+00,1.373291015625000000e-01,5.645751953125000000e-01
9.947794437408447266e+00,-8.643068075180053711e-01,-8.856151580810546875e+00,-5.451597213745117188e+00,-3.860473632812500000e+00,3.051757812500000000e-01,5.035400390625000000e-01
9.961793661117553711e+00,-8.259995579719543457e-01,-8.856151580810546875e+00,-5.434837818145751953e+00,-3.669738769531250000e+00,4.882812500000000000e-01,4.806518554687500000e-01
9.973875522613525391e+00,-8.236053586006164551e-01,-8.848969459533691406e+00,-5.434837818145751953e+00,-3.669738769531250000e+00,3.051757812500000000e-01,1.831054687500000000e-01
9.989293336868286133e+00,-8.236053586006164551e-01,-8.860939979553222656e+00,-5.434837818145751953e+00,-3.509521484375000000e+00,-4.043579101562500000e-01,4.806518554687500000e-01
1.000183963775634766e+01,-8.571242094039916992e-01,-8.848969459533691406e+00,-5.382165431976318359e+00,-3.501892089843750000e+00,-4.043579101562500000e-01,7.400512695312500000e-01
1.001647067070007324e+01,-8.571242094039916992e-01,-8.801085472106933594e+00,-5.382165431976318359e+00,-3.501892089843750000e+00,-4.043579101562500000e-01,7.553100585937500000e-01
1.002881860733032227e+01,-8.020575642585754395e-01,-8.786720275878906250e+00,-5.382165431976318359e+00,-3.334045410156250000e+00,-6.103515625000000000e-01,1.564025878906250000e+00
1.004373550415039062e+01,-8.020575642585754395e-01,-8.786720275878906250e+00,-5.504269599914550781e+00,-3.303527832031250000e+00,-1.609802246093750000e+00,1.609802246093750000e+00
1.005881023406982422e+01,-8.044517636299133301e-01,-8.808267593383789062e+00,-5.504269599914550781e+00,-3.288269042968750000e+00,-1.609802246093750000e+00,2.128601074218750000e+00
1.007090926170349121e+01,-8.307879567146301270e-01,-8.836997985839843750e+00,-5.396530628204345703e+00,-3.303527832031250000e+00,-1.380920410156250000e+00,2.128601074218750000e+00
1.008490848541259766e+01,-8.307879567146301270e-01,-8.808267593383789062e+00,-5.396530628204345703e+00,-3.288269042968750000e+00,-1.380920410156250000e+00,1.754760742187500000e+00
1.009745502471923828e+01,-8.307879567146301270e-01,-8.789113998413085938e+00,-5.300762653350830078e+00,-3.013610839843750000e+00,-1.716613769531250000e+00,1.754760742187500000e+00
1.011255979537963867e+01,-8.331821560859680176e-01,-8.707711219787597656e+00,-5.224147796630859375e+00,-3.013610839843750000e+00,-3.822326660156250000e+00,6.401062011718750000e+00
1.012450098991394043e+01,-1.304839849472045898e+00,-8.707711219787597656e+00,-5.224147796630859375e+00,-3.135681152343750000e+00,-4.837036132812500000e+00,6.401062011718750000e+00
1.013906097412109375e+01,-1.304839849472045898e+00,-8.700529098510742188e+00,-5.439626216888427734e+00,-3.135681152343750000e+00,-3.822326660156250000e+00,4.623413085937500000e+00
1.015432024002075195e+01,-9.169792532920836292e-01,-8.832209587097167969e+00,-5.439626216888427734e+00,-3.135681152343750000e+00,-2.220153808593750000e+00,4.272460937500000000e+00
1.016645216941833496e+01,-9.169792532920836292e-01,-8.765172004699707031e+00,-5.248090267181396484e+00,-3.356933593750000000e+00,-2.006530761718750000e+00,3.440856933593750000e+00
1.018126630783081055e+01,-1.185129880905151367e+00,-8.832209587097167969e+00,-5.248090267181396484e+00,-4.287719726562500000e+00,-2.006530761718750000e+00,1.716613769531250000e+00
1.019373941421508789e+01,-1.185129880905151367e+00,-8.786720275878906250e+00,-5.509057998657226562e+00,-4.287719726562500000e+00,-1.586914062500000000e+00,9.155273437500000000e-01
1.020878434181213379e+01,-9.552864432334899902e-01,-8.786720275878906250e+00,-5.509057998657226562e+00,-2.655029296875000000e+00,-5.798339843750000000e-01,9.155273437500000000e-01
1.021980714797973633e+01,-9.552864432334899902e-01,-8.786720275878906250e+00,-5.485116004943847656e+00,-2.655029296875000000e+00,-5.798339843750000000e-01,2.120971679687500000e+00
1.023538684844970703e+01,-9.552864432334899902e-01,-8.786720275878906250e+00,-5.473145008087158203e+00,-3.234863281250000000e+00,-5.798339843750000000e-01,2.120971679687500000e+00
1.025072121620178223e+01,-9.768342971801757812e-01,-8.901641845703125000e+00,-5.468356609344482422e+00,-3.234863281250000000e+00,-7.324218750000000000e-01,2.120971679687500000e+00
1.026189780235290527e+01,-9.504980444908142090e-01,-8.786720275878906250e+00,-5.468356609344482422e+00,-3.234863281250000000e+00,-3.204345703125000000e-01,1.945495605468750000e+00
1.027718544006347656e+01,-8.427590131759643555e-01,-8.827421188354492188e+00,-5.487510204315185547e+00,-3.791809082031250000e+00,-7.324218750000000000e-01,-3.585815429687500000e-01
1.028931355476379395e+01,-5.339069962501525879e-01,-8.827421188354492188e+00,-5.793968200683593750e+00,-3.791809082031250000e+00,-3.204345703125000000e-01,-4.272460937500000000e-01
1.030468106269836426e+01,-5.339069962501525879e-01,-8.892065048217773438e+00,-5.793968200683593750e+00,-2.151489257812500000e+00,1.480102539062500000e+00,-3.585815429687500000e-01
1.031601858139038086e+01,-8.643068075180053711e-01,-8.892065048217773438e+00,-5.561730384826660156e+00,-2.151489257812500000e+00,1.480102539062500000e+00,8.316040039062500000e-01
1.033147072792053223e+01,-1.443703651428222878e+00,-8.892065048217773438e+00,-5.561730384826660156e+00,-3.074645996093750000e+00,-1.327514648437500000e+00,8.316040039062500000e-01
1.034690141677856445e+01,-1.443703651428222878e+00,-8.918400764465332031e+00,-5.612008571624755859e+00,-3.723144531250000000e+00,-1.327514648437500000e+00,-3.662109375000000000e+00
1.035865688323974609e+01,-7.326257228851318359e-01,-8.918400764465332031e+00,-5.612008571624755859e+00,-3.723144531250000000e+00,1.510620117187500000e+00,-3.662109375000000000e+00
1.037320208549499512e+01,-7.326257228851318359e-01,-8.655038833618164062e+00,-5.319916248321533203e+00,-3.723144531250000000e+00,1.510620117187500000e+00,3.288269042968750000e+00
1.038776636123657227e+01,-9.576806426048279919e-01,-8.640673637390136719e+00,-5.319916248321533203e+00,-4.074096679687500000e+00,-3.189086914062500000e+00,3.288269042968750000e+00
1.040022706985473633e+01,-9.576806426048279919e-01,-8.655038833618164062e+00,-5.667075157165527344e+00,-4.074096679687500000e+00,-3.211975097656250000e+00,2.799987792968750000e+00
1.041217327117919922e+01,-8.690952062606811523e-01,-8.664615631103515625e+00,-5.667075157165527344e+00,-5.088806152343750000e+00,-3.189086914062500000e+00,9.536743164062500000e-01
1.042982625961303711e+01,-5.937620401382446289e-01,-8.705317497253417969e+00,-5.336675643920898438e+00,-4.974365234375000000e+00,-2.052307128906250000e+00,9.536743164062500000e-01
1.044045877456665039e+01,-5.937620401382446289e-01,-8.705317497253417969e+00,-5.336675643920898438e+00,-4.974365234375000000e+00,-2.052307128906250000e+00,9.536743164062500000e-01
1.045419096946716309e+01,-1.125274777412414551e+00,-9.119514465332031250e+00,-5.329493045806884766e+00,-2.372741699218750000e+00,-3.082275390625000000e+00,5.104064941406250000e+00
1.047169184684753418e+01,-1.237802267074584961e+00,-9.119514465332031250e+00,-5.549759387969970703e+00,-2.243041992187500000e+00,-3.082275390625000000e+00,5.104064941406250000e+00
1.048173832893371582e+01,-1.283292055130004883e+00,-9.066842079162597656e+00,-5.585672378540039062e+00,-2.212524414062500000e+00,1.296997070312500000e-01,2.555847167968750000e+00
1.049728965759277344e+01,-1.302445650100708008e+00,-9.033323287963867188e+00,-5.705382347106933594e+00,-2.243041992187500000e+00,2.014160156250000000e+00,-1.403808593750000000e+00
1.051080513000488281e+01,-1.302445650100708008e+00,-8.985439300537109375e+00,-5.607220172882080078e+00,-2.212524414062500000e+00,2.014160156250000000e+00,-2.624511718750000000e+00
1.052287507057189941e+01,-1.249773263931274414e+00,-8.856151580810546875e+00,-5.607220172882080078e+00,-2.326965332031250000e+00,8.010864257812500000e-01,-2.624511718750000000e+00
1.053512406349182129e+01,-9.433154463768004261e-01,-8.755595207214355469e+00,-5.592854976654052734e+00,-1.998901367187500000e+00,8.010864257812500000e-01,-1.411437988281250000e+00
1.055261278152465820e+01,-3.375824391841887873e-01,-8.755595207214355469e+00,-5.133168220520020419e+00,-1.998901367187500000e+00,-1.312255859375000000e+00,3.280639648437500000e-01
1.056377935409545898e+01,-3.375824391841887873e-01,-8.772355079650878906e+00,-5.133168220520020419e+00,-1.121520996093750000e+00,-2.151489257812500000e+00,1.007080078125000000e+00
1.057706260681152344e+01,-4.141968786716461182e-01,-8.884881973266601562e+00,-5.121197223663330078e+00,-1.121520996093750000e+00,-2.151489257812500000e+00,1.007080078125000000e+00
1.059478855133056641e+01,-6.751648783683776855e-01,-9.028534889221191406e+00,-5.298368453979492188e+00,-1.625061035156250000e+00,6.179809570312500000e-01,1.007080078125000000e+00
1.060529804229736328e+01,-9.050082564353943981e-01,-9.054870605468750000e+00,-5.023035049438476562e+00,-2.319335937500000000e+00,6.179809570312500000e-01,-3.814697265625000000e-01
1.061983871459960938e+01,-1.039083480834960938e+00,-9.028534889221191406e+00,-5.473145008087158203e+00,-1.625061035156250000e+00,5.645751953125000000e-01,-1.419067382812500000e+00
1.063178992271423340e+01,-1.039083480834960938e+00,-8.908823966979980469e+00,-5.080495834350585938e+00,-1.808166503906250000e+00,5.645751953125000000e-01,-3.211975097656250000e+00
1.064611220359802246e+01,-1.039083480834960938e+00,-8.908823966979980469e+00,-5.731718540191650391e+00,-1.808166503906250000e+00,4.760742187500000000e+00,-7.659912109375000000e+00
1.065874934196472168e+01,-8.020575642585754395e-01,-8.937554359436035156e+00,-5.377377033233642578e+00,-4.402160644531250000e+00,4.760742187500000000e+00,-7.659912109375000000e+00
1.067399144172668457e+01,-7.182605266571044922e-01,-8.937554359436035156e+00,-5.377377033233642578e+00,-4.402160644531250000e+00,3.738403320312500000e-01,8.010864257812500000e-01
1.068560266494750977e+01,-7.182605266571044922e-01,-8.566453933715820312e+00,-5.324704647064208984e+00,-2.059936523437500000e-01,-1.930236816406250000e+00,1.129150390625000000e+00
1.069991254806518555e+01,-7.182605266571044922e-01,-8.566453933715820312e+00,-4.967968463897705078e+00,-1.831054687500000000e-01,-2.258300781250000000e+00,1.129150390625000000e+00
1.071511077880859375e+01,-9.959878921508787952e-01,-9.050082206726074219e+00,-4.967968463897705078e+00,-1.831054687500000000e-01,-2.258300781250000000e+00,-5.874633789062500000e-01
1.072678327560424805e+01,-8.379705548286437988e-01,-9.050082206726074219e+00,-4.967968463897705078e+00,-3.219604492187500000e+00,-2.258300781250000000e+00,-5.874633789062500000e-01
1.074206137657165527e+01,-1.513135433197021706e+00,-8.372523307800292969e+00,-4.675875663757324219e+00,-6.927490234375000000e+00,-5.432128906250000000e+00,-5.874633789062500000e-01
1.075448060035705566e+01,-1.513135433197021706e+00,-8.372523307800292969e+00,-4.675875663757324219e+00,-6.927490234375000000e+00,-5.432128906250000000e+00,-6.484985351562500000e+00
1.076921606063842773e+01,-1.513135433197021706e+00,-9.097966194152832031e+00,-5.353435039520263672e+00,-1.549530029296875000e+01,-9.300231933593750000e+00,-6.484985351562500000e+00
1.078115725517272949e+01,-1.505952835083007812e+00,-9.097966194152832031e+00,-6.447585105895996094e+00,-2.746582031250000000e-01,7.858276367187500000e+00,-6.484985351562500000e+00
1.079699420928955078e+01,-1.077390760183333934e-01,-8.810662269592285156e+00,-5.595249176025390625e+00,-8.621215820312500000e-01,9.147644042968750000e+00,-1.395416259765625000e+01
1.080811524391174316e+01,-1.496376037597656250e+00,-8.432377815246582031e+00,-5.595249176025390625e+00,-8.621215820312500000e-01,9.147644042968750000e+00,-1.395416259765625000e+01
1.082375454902648926e+01,-1.455674648284912109e+00,-8.432377815246582031e+00,-5.181052207946777344e+00,-8.621215820312500000e-01,1.860046386718750000e+01,-1.255035400390625000e+01
1.083567667007446289e+01,-1.496376037597656250e+00,-8.432377815246582031e+00,-5.181052207946777344e+00,-5.058288574218750000e+00,1.198577880859375000e+01,-1.255035400390625000e+01
1.085004997253417969e+01,-1.455674648284912109e+00,-8.611943244934082031e+00,-6.256049156188964844e+00,3.814697265625000000e-02,1.957702636718750000e+01,-1.624298095703125000e+01
1.086594414710998535e+01,-1.343147158622741699e+00,-8.652645111083984375e+00,-6.256049156188964844e+00,-4.089355468750000000e+00,1.198577880859375000e+01,-1.624298095703125000e+01
1.087712597846984863e+01,-9.457096457481384277e-01,-8.643068313598632812e+00,-5.995080947875976562e+00,-3.738403320312500000e-01,6.179809570312500000e+00,-5.752563476562500000e+00
1.089260554313659668e+01,-3.256114125251770020e-01,-8.643068313598632812e+00,-4.850652694702148438e+00,-4.089355468750000000e+00,2.693176269531250000e+00,-5.752563476562500000e+00
1.090491104125976562e+01,-4.548983275890350342e-02,-8.523358345031738281e+00,-4.850652694702148438e+00,-3.738403320312500000e-01,6.179809570312500000e+00,-4.501342773437500000e+00
1.091971921920776367e+01,-3.256114125251770020e-01,-8.523358345031738281e+00,-4.707000255584716797e+00,-5.569458007812500000e-01,-2.212524414062500000e+00,-8.636474609375000000e+00
1.093118405342102051e+01,-5.219359397888183594e-01,-8.944737434387207031e+00,-4.972756862640380859e+00,-5.569458007812500000e-01,-1.121520996093750000e+00,-4.501342773437500000e+00
1.094642114639282227e+01,-5.219359397888183594e-01,-8.944737434387207031e+00,-4.707000255584716797e+00,-5.569458007812500000e-01,-1.121520996093750000e+00,-2.235412597656250000e+00
1.095822787284851074e+01,-5.219359397888183594e-01,-9.076418876647949219e+00,-5.695805549621582031e+00,1.411437988281250000e+00,1.141357421875000000e+01,-2.235412597656250000e+00
1.097374105453491211e+01,-6.631938815116882324e-01,-9.121908187866212714e+00,-5.597643375396728516e+00,8.293151855468750000e+00,1.150512695312500000e+01,-6.896972656250000000e+00
1.098807525634765625e+01,-6.631938815116882324e-01,-9.121908187866212714e+00,-5.741295814514160156e+00,8.293151855468750000e+00,1.150512695312500000e+01,-6.965637207031250000e+00
1.100039243698120117e+01,-5.865793824195861816e-01,-9.564835548400880683e+00,-5.741295814514160156e+00,8.293151855468750000e+00,1.150512695312500000e+01,-8.682250976562500000e+00
1.101793742179870605e+01,-5.865793824195861816e-01,-9.378087997436523438e+00,-5.789179801940917969e+00,1.288604736328125000e+01,1.341247558593750000e+01,-1.213073730468750000e+01
1.102829265594482422e+01,-5.865793824195861816e-01,-9.378087997436523438e+00,-5.789179801940917969e+00,1.488494873046875000e+01,1.471710205078125000e+01,-1.675415039062500000e+01
1.104235005378723145e+01,-8.140285313129419498e-02,-8.901641845703125000e+00,-4.364629745483398438e+00,1.577758789062500000e+01,1.341247558593750000e+01,-1.675415039062500000e+01
1.105956220626831055e+01,-8.140285313129419498e-02,-8.901641845703125000e+00,-4.364629745483398438e+00,1.577758789062500000e+01,-4.859924316406250000e+00,1.831054687500000000e+00
1.106931471824645996e+01,3.639186620712280273e-01,-8.913612365722656250e+00,-4.352658748626708984e+00,9.788513183593750000e+00,-4.859924316406250000e+00,1.831054687500000000e+00
1.108435821533203125e+01,-4.309563040733336847e-01,-9.150638580322265625e+00,-4.376600742340087891e+00,6.423950195312500000e+00,-6.347656250000000000e+00,1.831054687500000000e+00
1.109865045547485352e+01,5.985504016280170092e-02,-9.150638580322265625e+00,-5.746084213256835938e+00,6.423950195312500000e+00,-4.127502441406250000e+00,-2.571105957031250000e+00
1.111188745498657227e+01,5.985504016280170092e-02,-9.215282440185548651e+00,-5.746084213256835938e+00,6.423950195312500000e+00,-4.127502441406250000e+00,-7.102966308593750000e+00
1.112275981903076172e+01,9.816227108240120625e-02,-9.124302864074708808e+00,-5.746084213256835938e+00,1.015472412109375000e+01,4.165649414062500000e+00,-7.102966308593750000e+00
1.114065551757812500e+01,4.668693244457244873e-01,-9.062053680419921875e+00,-4.639962673187255859e+00,6.767272949218750000e+00,5.126953125000000000e+00,-1.808166503906250000e+00
1.115087985992431641e+01,4.668693244457244873e-01,-9.062053680419921875e+00,-4.668693065643311435e+00,6.767272949218750000e+00,5.126953125000000000e+00,1.098632812500000000e+00
1.116555523872375488e+01,4.285621047019957941e-01,-9.143456459045410156e+00,-4.668693065643311435e+00,6.767272949218750000e+00,3.929138183593750000e+00,1.098632812500000000e+00
1.118269586563110352e+01,4.285621047019957941e-01,-9.167398452758787286e+00,-5.006275653839111328e+00,5.638122558593750000e+00,3.173828125000000000e+00,1.098632812500000000e+00
1.119377565383911133e+01,4.285621047019957941e-01,-9.167398452758787286e+00,-5.743690013885498047e+00,1.393127441406250000e+01,1.914978027343750000e+00,-1.182556152343750000e+00
1.120774674415588379e+01,2.011129409074783048e-01,-9.229647636413574219e+00,-5.006275653839111328e+00,5.638122558593750000e+00,1.914978027343750000e+00,1.602172851562500000e+00
1.122167325019836426e+01,-3.519476354122161865e-01,-9.083600997924804688e+00,-5.528211593627929688e+00,7.408142089843750000e+00,-6.256103515625000000e-01,-1.701354980468750000e+00
1.123391604423522949e+01,1.436521019786590053e-02,-9.229647636413574219e+00,-4.469974517822265625e+00,5.218505859375000000e+00,-6.256103515625000000e-01,1.525878906250000000e-02
1.124598598480224609e+01,-3.519476354122161865e-01,-8.848969459533691406e+00,-4.788403511047363281e+00,3.173828125000000000e+00,4.196166992187500000e+00,-1.701354980468750000e+00
1.126072192192077637e+01,-8.595184087753295898e-01,-9.311050415039062500e+00,-4.788403511047363281e+00,3.173828125000000000e+00,6.454467773437500000e+00,-3.639221191406250000e+00
1.127350544929504395e+01,-8.595184087753295898e-01,-8.829815864562988281e+00,-4.788403511047363281e+00,2.199554443359375000e+01,4.196166992187500000e+00,-3.639221191406250000e+00
1.128810977935791016e+01,-1.675941199064253928e-01,-9.749189376831056464e+00,-6.110002517700195312e+00,2.199554443359375000e+01,9.994506835937500000e+00,7.659912109375000000e+00
1.130297851562500000e+01,3.471592366695404053e-01,-8.829815864562988281e+00,-3.981557369232177734e+00,1.957702636718750000e+01,3.860473632812500000e+00,7.659912109375000000e+00
1.131512737274169922e+01,-1.675941199064253928e-01,-8.350975036621093750e+00,-6.110002517700195312e+00,1.957702636718750000e+01,5.798339843750000000e+00,-6.141662597656250000e+00
1.133013606071472168e+01,3.471592366695404053e-01,-8.350975036621093750e+00,-5.458779811859130859e+00,1.420593261718750000e+01,3.860473632812500000e+00,-6.675720214843750000e+00
1.134231686592102051e+01,7.062894701957702637e-01,-8.793902397155761719e+00,-5.458779811859130859e+00,2.088165283203125000e+01,2.449035644531250000e+00,-6.675720214843750000e+00
1.135758423805236816e+01,7.062894701957702637e-01,-8.793902397155761719e+00,-5.224147796630859375e+00,2.088165283203125000e+01,-3.829956054687500000e+00,-5.470275878906250000e+00
1.137234306335449219e+01,-1.723825186491012018e-01,-8.561665534973144531e+00,-3.476380825042724609e+00,2.088165283203125000e+01,-4.867553710937500000e+00,5.729675292968750000e+00
1.138466310501098633e+01,-1.723825186491012018e-01,-8.561665534973144531e+00,-3.169923067092895508e+00,-2.059936523437500000e+00,-8.560180664062500000e+00,5.729675292968750000e+00
1.140003180503845215e+01,-1.723825186491012018e-01,-8.939949035644531250e+00,-3.476380825042724609e+00,-3.509521484375000000e+00,-8.560180664062500000e+00,1.792907714843750000e+00
1.141078424453735352e+01,-1.173158809542655945e-01,-9.437942504882812500e+00,-5.214570999145507812e+00,-2.059936523437500000e+00,3.585815429687500000e-01,1.792907714843750000e+00
1.142630267143249512e+01,3.256114125251770020e-01,-9.452307701110839844e+00,-5.614402770996093750e+00,-2.807617187500000000e+00,6.484985351562500000e-01,6.164550781250000000e+00
1.144161915779113770e+01,3.256114125251770020e-01,-9.452307701110839844e+00,-5.214570999145507812e+00,1.449584960937500000e-01,5.409240722656250000e+00,6.164550781250000000e+00
1.145377826690673828e+01,1.388636976480484009e-01,-9.593565940856933594e+00,-4.941632270812988281e+00,-2.807617187500000000e+00,5.409240722656250000e+00,-1.055145263671875000e+01
1.146869659423828125e+01,-4.788403399288599684e-03,-9.593565940856933594e+00,-4.941632270812988281e+00,-1.296997070312500000e-01,4.188537597656250000e+00,-1.055145263671875000e+01
1.148048925399780273e+01,-7.302315235137939453e-01,-9.457096099853515625e+00,-4.625597476959228516e+00,-1.296997070312500000e-01,1.022338867187500000e+00,-3.875732421875000000e+00
1.149491238594055176e+01,-1.436520963907240989e-01,-9.394846916198730469e+00,-4.185064315795898438e+00,9.689331054687500000e-01,6.866455078125000000e-02,-3.540039062500000000e+00
1.150764250755310059e+01,-7.302315235137939453e-01,-9.394846916198730469e+00,-4.043806552886962891e+00,1.396179199218750000e+00,-7.476806640625000000e-01,-2.044677734375000000e+00
1.152176928520202637e+01,-6.847416758537292480e-01,-9.615114212036132812e+00,-4.106055736541748047e+00,2.906799316406250000e+00,-3.402709960937500000e+00,2.151489257812500000e+00
1.153724741935729980e+01,-6.847416758537292480e-01,-9.615114212036132812e+00,-4.106055736541748047e+00,2.906799316406250000e+00,-8.941650390625000000e+00,1.296997070312500000e-01
1.154915523529052734e+01,-6.847416758537292480e-01,-9.258378028869627130e+00,-4.106055736541748047e+00,2.906799316406250000e+00,-8.941650390625000000e+00,1.296997070312500000e-01
1.156431055068969727e+01,1.173158809542655945e-01,-9.217676162719728339e+00,-3.983951568603516069e+00,-3.814697265625000000e-01,-9.918212890625000000e-02,-6.866455078125000000e-02
1.157634687423706055e+01,6.703764945268629594e-02,-9.217676162719728339e+00,-3.983951568603516069e+00,-3.814697265625000000e-01,-9.918212890625000000e-02,-6.866455078125000000e-02
1.159176778793334961e+01,1.173158809542655945e-01,-9.193734169006347656e+00,-4.264073371887207031e+00,1.502990722656250000e+00,-6.408691406250000000e+00,1.663208007812500000e+00
1.160342764854431152e+01,6.703764945268629594e-02,-9.169792175292968750e+00,-4.321534156799316406e+00,1.502990722656250000e+00,-6.408691406250000000e+00,1.663208007812500000e+00
1.161817741394042969e+01,-6.512228250503540039e-01,-9.169792175292968750e+00,-4.264073371887207031e+00,-2.380371093750000000e+00,-6.408691406250000000e+00,1.976013183593750000e+00
1.163357019424438477e+01,-6.512228250503540039e-01,-9.849745750427246094e+00,-4.321534156799316406e+00,-2.380371093750000000e+00,-9.094238281250000000e+00,1.495361328125000000e+00
1.164767527580261230e+01,-5.865793824195861816e-01,-9.849745750427246094e+00,-4.484339714050292969e+00,1.426696777343750000e+00,-9.094238281250000000e+00,1.976013183593750000e+00
1.166035652160644531e+01,-3.303998410701751154e-01,-9.545681953430175781e+00,-4.484339714050292969e+00,1.426696777343750000e+00,-3.890991210937500000e-01,1.495361328125000000e+00
1.167260432243347168e+01,4.237737059593200128e-01,-9.325415611267089844e+00,-4.484339714050292969e+00,-2.021789550781250000e+00,-3.890991210937500000e-01,-1.167297363281250000e+00
1.168963670730590820e+01,5.650315880775451660e-01,-9.504981040954589844e+00,-4.642356872558593750e+00,-2.021789550781250000e+00,-4.890441894531250000e+00,-2.952575683593750000e+00
1.170007300376892090e+01,4.237737059593200128e-01,-9.325415611267089844e+00,-4.642356872558593750e+00,-3.593444824218750000e+00,-1.029968261718750000e+01,-5.058288574218750000e+00
1.171414566040039062e+01,-3.830722570419311968e+00,-8.820239067077636719e+00,-4.642356872558593750e+00,-3.303527832031250000e+00,-4.890441894531250000e+00,-6.759643554687500000e+00
1.173165631294250488e+01,-3.830722570419311968e+00,-8.487444877624511719e+00,-5.109226226806640625e+00,-7.301330566406250000e+00,-6.050109863281250000e+00,-6.759643554687500000e+00
1.174253249168395996e+01,8.140285611152648926e-01,-8.820239067077636719e+00,-5.324704647064208984e+00,-3.303527832031250000e+00,1.114654541015625000e+01,-2.471923828125000000e+00
1.175683236122131348e+01,1.503558635711669922e+00,-8.568847656250000000e+00,-5.324704647064208984e+00,-2.609252929687500000e+00,1.741790771484375000e+01,3.074645996093750000e+00
1.177064752578735352e+01,1.503558635711669922e+00,-8.568847656250000000e+00,-5.324704647064208984e+00,-2.609252929687500000e+00,1.741790771484375000e+01,3.074645996093750000e+00
1.178345489501953125e+01,4.692635238170623779e-01,-8.568847656250000000e+00,-5.032611846923828125e+00,-3.089904785156250000e+00,1.741790771484375000e+01,2.609252929687500000e+00
1.179867553710937500e+01,4.692635238170623779e-01,-9.320627212524414062e+00,-4.029441356658936435e+00,-3.746032714843750000e+00,9.323120117187500000e+00,1.571655273437500000e+00
1.181265521049499512e+01,4.692635238170623779e-01,-9.320627212524414062e+00,-5.032611846923828125e+00,-5.661010742187500000e+00,9.323120117187500000e+00,1.571655273437500000e+00
1.182525634765625000e+01,-5.626373887062072754e-01,-9.667786598205566406e+00,-2.358288526535034180e+00,-5.683898925781250000e+00,7.339477539062500000e+00,-2.120971679687500000e+00
1.183770203590393066e+01,-3.198653459548950195e+00,-8.384493827819824219e+00,-5.123591423034667969e+00,-5.661010742187500000e+00,3.646850585937500000e+00,1.068115234375000000e-01
1.185213565826416016e+01,-3.198653459548950195e+00,-9.667786598205566406e+00,-6.232106685638427734e+00,-4.272460937500000000e+00,7.339477539062500000e+00,-9.361267089843750000e+00
1.186415410041809082e+01,-3.198653459548950195e+00,-1.067574501037597656e+01,-6.232106685638427734e+00,-4.272460937500000000e+00,1.332092285156250000e+01,-1.199340820312500000e+01
1.187907624244689941e+01,5.865793824195861816e-01,-1.083615684509277166e+01,-6.232106685638427734e+00,-4.272460937500000000e+00,1.332092285156250000e+01,-1.725769042968750000e+01
1.189073514938354492e+01,5.865793824195861816e-01,-1.083615684509277166e+01,-3.469198226928710938e+00,-4.409790039062500000e+00,-1.010894775390625000e+01,-1.725769042968750000e+01
1.190600204467773438e+01,-1.529894828796386719e+00,-1.083615684509277166e+01,-3.909731388092041016e+00,-3.433227539062500000e-01,-1.010894775390625000e+01,-3.974914550781250000e+00
1.192125701904296875e+01,-1.570596337318420410e+00,-1.054885292053222834e+01,-3.909731388092041016e+00,2.250671386718750000e+00,2.825164794921875000e+01,2.363586425781250000e+01
1.193359613418579102e+01,-1.529894828796386719e+00,-1.054885292053222834e+01,-3.909731388092041016e+00,3.929138183593750000e+00,3.463745117187500000e+01,3.203582763671875000e+01
1.194792985916137695e+01,-5.554547905921936035e-01,-1.054885292053222834e+01,-2.791639089584350586e+00,3.929138183593750000e+00,3.463745117187500000e+01,2.363586425781250000e+01
1.196025824546813965e+01,9.402029991149902344e+00,-1.086009883880615234e+01,-2.791639089584350586e+00,2.067565917968750000e+00,2.426147460937500000e+01,3.203582763671875000e+01
1.197496867179870605e+01,9.402029991149902344e+00,-1.086009883880615234e+01,-7.000645637512207031e+00,-2.777099609375000000e+00,-2.067565917968750000e+00,2.214050292968750000e+01
1.199050140380859375e+01,8.504204750061035156e+00,-1.120486354827880859e+01,-7.000645637512207031e+00,-2.777099609375000000e+00,-2.067565917968750000e+00,4.028320312500000000e+00
1.200256657600402832e+01,5.513846397399902344e+00,-1.015620326995849609e+01,-5.839457988739013672e+00,5.340576171875000000e-02,-2.494812011718750000e+00,4.028320312500000000e+00
1.201785731315612793e+01,5.513846397399902344e+00,-1.040520000457763672e+01,-5.149927616119384766e+00,5.340576171875000000e-02,-4.785919189453125000e+01,5.897521972656250000e+00
1.202886819839477539e+01,-1.939303278923034113e-01,-1.015620326995849609e+01,-5.149927616119384766e+00,-1.876831054687500000e+00,-4.785919189453125000e+01,1.724243164062500000e+01
1.204403519630432129e+01,-5.698199868202209473e-01,-9.902418136596679688e+00,-4.920084476470947266e+00,-4.028320312500000000e+00,-2.041625976562500000e+01,1.724243164062500000e+01
1.205611968040466309e+01,-5.698199868202209473e-01,-9.176975250244140625e+00,-4.620809078216552734e+00,-4.028320312500000000e+00,-9.918212890625000000e+00,1.251983642578125000e+01
1.207092809677124023e+01,-3.591302633285521906e-01,-9.485827445983888495e+00,-4.920084476470947266e+00,-4.028320312500000000e+00,-1.899719238281250000e+00,2.410888671875000000e+00
1.208633279800415039e+01,-3.591302633285521906e-01,-9.167398452758787286e+00,-4.340687751770020419e+00,-3.784179687500000000e+00,-1.296997070312500000e+00,3.524780273437500000e+00
1.209827995300292969e+01,-3.232172131538391113e-01,-9.325415611267089844e+00,-4.460397720336914062e+00,-3.784179687500000000e+00,-1.068115234375000000e-01,2.410888671875000000e+00
1.211332106590270996e+01,-6.320692300796508789e-01,-9.167398452758787286e+00,-4.340687751770020419e+00,-3.890991210937500000e+00,3.204345703125000000e-01,7.781982421875000000e-01
1.212511277198791504e+01,-6.320692300796508789e-01,-9.325415611267089844e+00,-4.460397720336914062e+00,-3.890991210937500000e+00,-1.068115234375000000e-01,7.781982421875000000e-01
1.214042520523071289e+01,-7.685387134552001953e-01,-9.217676162719728339e+00,-4.527435302734375000e+00,-2.799987792968750000e+00,-1.419067382812500000e+00,2.609252929687500000e+00
1.215258884429931641e+01,-7.685387134552001953e-01,-9.617507934570312500e+00,-4.527435302734375000e+00,-2.799987792968750000e+00,-2.342224121093750000e+00,2.609252929687500000e+00
1.216708111763000488e+01,-5.626373887062072754e-01,-9.607931137084959161e+00,-4.520252704620361328e+00,-4.470825195312500000e+00,-2.342224121093750000e+00,-1.907348632812500000e-01
1.218279767036437988e+01,-5.626373887062072754e-01,-9.617507934570312500e+00,-4.520252704620361328e+00,-4.470825195312500000e+00,-2.273559570312500000e+00,-1.907348632812500000e-01
1.219427204132080078e+01,-6.033388376235961914e-01,-9.607931137084959161e+00,-4.520252704620361328e+00,-2.929687500000000000e+00,-3.204345703125000000e-01,1.243591308593750000e+00
1.220943498611450195e+01,-6.320692300796508789e-01,-9.548076629638671875e+00,-4.496310710906982422e+00,-2.334594726562500000e+00,-3.204345703125000000e-01,1.243591308593750000e+00
1.222156739234924316e+01,-6.320692300796508789e-01,-9.437942504882812500e+00,-4.295197963714599609e+00,-2.334594726562500000e+00,4.730224609375000000e-01,-4.730224609375000000e-01
1.223857665061950684e+01,-5.817909836769104004e-01,-9.102754592895507812e+00,-4.204217910766601562e+00,-2.334594726562500000e+00,7.324218750000000000e-01,-4.730224609375000000e-01
1.225139164924621582e+01,-5.817909836769104004e-01,-9.279925346374511719e+00,-4.204217910766601562e+00,-3.654479980468750000e+00,7.324218750000000000e-01,1.335144042968750000e+00
1.226371264457702637e+01,-7.517793178558349609e-01,-9.279925346374511719e+00,-4.165910720825195312e+00,-3.837585449218750000e+00,-1.968383789062500000e+00,1.335144042968750000e+00
1.228061366081237793e+01,-7.517793178558349609e-01,-9.521739959716796875e+00,-4.285621166229248047e+00,-4.699707031250000000e+00,-2.319335937500000000e+00,1.510620117187500000e+00
1.229060220718383789e+01,-2.753331959247589111e-01,-9.799467086791992188e+00,-4.604049682617188388e+00,-3.837585449218750000e+00,-1.968383789062500000e+00,6.484985351562500000e-01
1.230523371696472168e+01,-2.753331959247589111e-01,-9.521739959716796875e+00,-4.604049682617188388e+00,-4.699707031250000000e+00,-1.548767089843750000e+00,1.510620117187500000e+00
1.232263159751892090e+01,-2.298433631658554077e-01,-9.366116523742675781e+00,-4.110844135284423828e+00,-4.295349121093750000e+00,8.773803710937500000e-01,3.128051757812500000e-01
1.233358526229858398e+01,-3.854664564132689875e-01,-9.366116523742675781e+00,-4.110844135284423828e+00,-4.295349121093750000e+00,8.773803710937500000e-01,1.548767089843750000e+00
1.234748411178588867e+01,-3.854664564132689875e-01,-9.366116523742675781e+00,-4.084507942199707031e+00,-3.540039062500000000e+00,8.773803710937500000e-01,1.274108886718750000e+00
1.236473369598388672e+01,-4.141968786716461182e-01,-9.215282440185548651e+00,-4.163516521453857422e+00,-3.540039062500000000e+00,1.739501953125000000e+00,1.274108886718750000e+00
1.237533211708068848e+01,-5.482721924781799316e-01,-9.215282440185548651e+00,-4.084507942199707031e+00,-4.692077636718750000e+00,3.128051757812500000e-01,1.274108886718750000e+00
1.238936805725097656e+01,-5.482721924781799316e-01,-9.282320022583007812e+00,-4.163516521453857422e+00,-4.692077636718750000e+00,-5.416870117187500000e-01,1.365661621093750000e+00
1.240376472473144531e+01,-5.482721924781799316e-01,-9.282320022583007812e+00,-4.407725334167480469e+00,-4.615783691406250000e+00,-5.416870117187500000e-01,1.365661621093750000e+00
1.241655898094177246e+01,-7.182605266571044922e-01,-9.940725326538085938e+00,-4.548983097076416016e+00,-4.615783691406250000e+00,1.449584960937500000e+00,-3.051757812500000000e-02
1.242803120613098145e+01,-7.182605266571044922e-01,-9.337386131286619317e+00,-4.438849925994873047e+00,-3.929138183593750000e+00,1.449584960937500000e+00,-1.220703125000000000e-01
1.244564819335937500e+01,-4.668693244457244873e-01,-9.533711433410644531e+00,-4.438849925994873047e+00,-3.929138183593750000e+00,1.358032226562500000e+00,-3.051757812500000000e-02
1.245820975303649902e+01,-3.950432837009429932e-01,-9.337386131286619317e+00,-4.400542736053466797e+00,-3.929138183593750000e+00,1.358032226562500000e+00,1.754760742187500000e-01
1.247000193595886230e+01,-4.668693244457244873e-01,-9.368511199951171875e+00,-4.400542736053466797e+00,-3.959655761718750000e+00,8.468627929687500000e-01,1.754760742187500000e-01
1.248502779006958008e+01,-1.987187415361403864e-01,-9.368511199951171875e+00,-4.448426723480224609e+00,-4.638671875000000000e+00,8.468627929687500000e-01,1.754760742187500000e-01
1.249696850776672363e+01,-6.344634294509887695e-01,-9.476249694824220526e+00,-4.553771495819091797e+00,-3.959655761718750000e+00,8.468627929687500000e-01,-9.765625000000000000e-01
1.251218366622924805e+01,-4.764461219310759943e-01,-9.476249694824220526e+00,-4.553771495819091797e+00,-5.493164062500000000e+00,-4.577636718750000000e-02,3.120422363281250000e+00
1.252783060073852539e+01,-6.344634294509887695e-01,-9.481039047241212714e+00,-4.639962673187255859e+00,-3.601074218750000000e+00,1.403808593750000000e+00,-9.765625000000000000e-01
1.253954577445983887e+01,-4.764461219310759943e-01,-9.392453193664550781e+00,-4.041412353515625000e+00,-5.493164062500000000e+00,1.296997070312500000e-01,1.983642578125000000e+00
1.255806279182434082e+01,-6.416460275650024414e-01,-9.672574996948242188e+00,-4.460397720336914062e+00,-3.601074218750000000e+00,2.166748046875000000e+00,-5.798339843750000000e-01
1.256900691986083984e+01,-6.416460275650024414e-01,-9.392453193664550781e+00,-4.242525577545166016e+00,-4.646301269531250000e+00,3.356933593750000000e-01,7.324218750000000000e-01
1.258156633377075195e+01,-6.416460275650024414e-01,-9.378087997436523438e+00,-4.242525577545166016e+00,-1.907348632812500000e+00,1.258850097656250000e+00,-5.798339843750000000e-01
1.259356331825256348e+01,-4.477156996726989746e-01,-9.378087997436523438e+00,-4.165910720825195312e+00,-4.646301269531250000e+00,1.045227050781250000e+00,4.577636718750000000e-01
1.260859608650207520e+01,-4.477156996726989746e-01,-9.414000511169433594e+00,-4.165910720825195312e+00,-2.639770507812500000e+00,1.045227050781250000e+00,4.577636718750000000e-01
1.262284564971923828e+01,-4.955997467041015070e-01,-9.830592155456544745e+00,-4.510675907135009766e+00,-3.326416015625000000e+00,2.441406250000000000e-01,1.571655273437500000e+00
1.263494610786437988e+01,-1.173158764839172363e+00,-9.830592155456544745e+00,-4.510675907135009766e+00,-3.326416015625000000e+00,-1.281738281250000000e+00,1.571655273437500000e+00
1.265017938613891602e+01,-1.173158764839172363e+00,-9.564835548400880683e+00,-4.505887508392333984e+00,-3.471374511718750000e+00,-1.281738281250000000e+00,-1.190185546875000000e+00
1.266188240051269531e+01,-2.585737705230712891e-01,-9.562441825866699219e+00,-4.443638324737548828e+00,-3.471374511718750000e+00,1.640319824218750000e+00,-1.541137695312500000e+00
1.267735195159912109e+01,-2.585737705230712891e-01,-9.272743225097656250e+00,-4.448426723480224609e+00,-3.471374511718750000e+00,1.640319824218750000e+00,-1.541137695312500000e+00
1.268939328193664551e+01,-3.447650372982025146e-01,-9.155426979064939630e+00,-4.218583106994628906e+00,-1.884460449218750000e+00,1.182556152343750000e+00,3.585815429687500000e-01
1.270417594909667969e+01,-5.913677811622619629e-01,-9.272743225097656250e+00,-4.299986362457275391e+00,-5.287170410156250000e+00,-2.288818359375000000e-02,1.152038574218750000e+00
1.271938252449035645e+01,-5.913677811622619629e-01,-9.402029991149902344e+00,-4.299986362457275391e+00,-1.884460449218750000e+00,-2.288818359375000000e-02,3.585815429687500000e-01
1.273155379295349121e+01,-3.351882398128508966e-01,-9.648633003234863281e+00,-4.299986362457275391e+00,-3.730773925781250000e+00,-2.288818359375000000e-02,1.152038574218750000e+00
1.274661397933959961e+01,-3.351882398128508966e-01,-9.402029991149902344e+00,-4.228159904479980469e+00,-3.730773925781250000e+00,8.926391601562500000e-01,8.850097656250000000e-01
1.275840353965759277e+01,-1.000776290893554910e+00,-9.600749015808103692e+00,-4.074931144714356357e+00,-4.020690917968750000e+00,8.926391601562500000e-01,1.541137695312500000e+00
1.277310633659362793e+01,-1.000776290893554910e+00,-9.538499832153320312e+00,-4.074931144714356357e+00,-4.020690917968750000e+00,-9.002685546875000000e-01,8.850097656250000000e-01
1.278532624244689941e+01,-4.477156996726989746e-01,-9.600749015808103692e+00,-4.321534156799316406e+00,-4.013061523437500000e+00,-1.892089843750000000e+00,1.541137695312500000e+00
1.280027341842651367e+01,-4.477156996726989746e-01,-9.600749015808103692e+00,-4.321534156799316406e+00,-3.906250000000000000e+00,-9.002685546875000000e-01,3.585815429687500000e-01
1.281505322456359863e+01,-4.860229492187500000e-01,-9.600749015808103692e+00,-4.307168960571289062e+00,-3.929138183593750000e+00,5.722045898437500000e-01,3.585815429687500000e-01
1.282776260375976562e+01,-4.860229492187500000e-01,-9.548076629638671875e+00,-4.307168960571289062e+00,-3.906250000000000000e+00,5.722045898437500000e-01,3.814697265625000000e-02
1.284276723861694336e+01,-4.141968786716461182e-01,-9.452307701110839844e+00,-4.283226966857910156e+00,-3.929138183593750000e+00,5.722045898437500000e-01,-4.196166992187500000e-01
1.285480451583862305e+01,-4.141968786716461182e-01,-9.452307701110839844e+00,-4.371812343597412109e+00,-3.089904785156250000e+00,2.441406250000000000e-01,-4.196166992187500000e-01
1.287167525291442871e+01,-5.458779931068420410e-01,-9.409212112426757812e+00,-4.125209331512451172e+00,-4.081726074218750000e+00,-2.136230468750000000e-01,1.029968261718750000e+00
1.288222646713256836e+01,-6.536170244216918945e-01,-9.409212112426757812e+00,-4.297592163085937500e+00,-2.464294433593750000e+00,-2.136230468750000000e-01,1.029968261718750000e+00
1.289596939086914062e+01,-5.458779931068420410e-01,-9.246406555175779474e+00,-4.046200752258300781e+00,-4.150390625000000000e+00,1.228332519531250000e+00,1.396179199218750000e+00
1.291359925270080566e+01,-4.764461219310759943e-01,-9.452307701110839844e+00,-4.297592163085937500e+00,-3.791809082031250000e+00,1.228332519531250000e+00,2.136230468750000000e-01
1.292466163635253906e+01,-4.764461219310759943e-01,-9.564835548400880683e+00,-4.254496574401856357e+00,-4.112243652343750000e+00,8.621215820312500000e-01,1.396179199218750000e+00
1.293835759162902832e+01,-5.674257874488830566e-01,-9.622296333312988281e+00,-4.400542736053466797e+00,-3.791809082031250000e+00,8.544921875000000000e-01,2.136230468750000000e-01
1.295271372795104980e+01,-5.674257874488830566e-01,-9.564835548400880683e+00,-4.254496574401856357e+00,-4.112243652343750000e+00,-6.332397460937500000e-01,-9.155273437500000000e-02
1.296513009071350098e+01,-4.572925269603729248e-01,-9.648633003234863281e+00,-4.400542736053466797e+00,-2.746582031250000000e+00,-6.332397460937500000e-01,-9.155273437500000000e-02
1.297690963745117188e+01,-4.046200811862945002e-01,-9.179368972778320312e+00,-3.892971992492675781e+00,-3.013610839843750000e+00,-6.332397460937500000e-01,1.365661621093750000e+00
1.299464964866638184e+01,-4.572925269603729248e-01,-9.442730903625488281e+00,-4.283226966857910156e+00,-3.013610839843750000e+00,-1.342773437500000000e+00,1.663208007812500000e+00
1.300740146636962891e+01,-4.525041282176970880e-01,-9.442730903625488281e+00,-4.283226966857910156e+00,-3.524780273437500000e+00,-8.926391601562500000e-01,1.365661621093750000e+00
1.301956152915954590e+01,-4.788403213024138849e-01,-9.445125579833984375e+00,-4.297592163085937500e+00,-3.822326660156250000e+00,-8.926391601562500000e-01,-2.441406250000000000e-01
1.303671741485595703e+01,-4.788403213024138849e-01,-9.457096099853515625e+00,-4.297592163085937500e+00,-3.822326660156250000e+00,2.517700195312500000e-01,-2.441406250000000000e-01
1.304688215255737305e+01,-5.051765441894531250e-01,-9.457096099853515625e+00,-4.297592163085937500e+00,-3.822326660156250000e+00,6.179809570312500000e-01,-3.280639648437500000e-01
1.306113743782043457e+01,-5.171475410461425781e-01,-9.457096099853515625e+00,-4.309563159942626953e+00,-2.960205078125000000e+00,6.179809570312500000e-01,2.822875976562500000e-01
