# elapsed time, f1_acc_x, f1_acc_y, f1_acc_z, f1_gyro_x, f1_gyro_y, f1_gyro_z
1.975724267959594727e+01,-5.643133163452148438e+00,-7.886500358581542969e+00,-2.011129379272460938e+00,-3.692626953125000000e+00,-9.155273437500000000e-02,5.264282226562500000e-01
1.977154541015625000e+01,-5.772420406341552734e+00,-7.886500358581542969e+00,-2.023100376129150391e+00,-3.692626953125000000e+00,9.918212890625000000e-02,5.264282226562500000e-01
1.978429865837097168e+01,-5.772420406341552734e+00,-7.841010570526123047e+00,-2.023100376129150391e+00,-3.692626953125000000e+00,-2.212524414062500000e-01,9.078979492187500000e-01
1.979916977882385254e+01,-5.772420406341552734e+00,-7.841010570526123047e+00,-2.025494575500488281e+00,-3.814697265625000000e+00,-1.296997070312500000e-01,5.111694335937500000e-01
1.981093668937683105e+01,-5.791574001312255859e+00,-7.862558364868164062e+00,-2.035071372985839844e+00,-3.814697265625000000e+00,-1.296997070312500000e-01,2.670288085937500000e-01
1.982572388648986816e+01,-5.688622951507568359e+00,-7.862558364868164062e+00,-2.044648170471191406e+00,-3.768920898437500000e+00,-1.296997070312500000e-01,2.670288085937500000e-01
1.983838748931884766e+01,-5.695805549621582031e+00,-7.833827972412109375e+00,-2.059013366699218750e+00,-3.440856933593750000e+00,-7.629394531250000000e-02,5.035400390625000000e-01
1.985253691673278809e+01,-5.695805549621582031e+00,-7.795520782470703125e+00,-2.059013366699218750e+00,-3.440856933593750000e+00,-3.585815429687500000e-01,6.561279296875000000e-01
1.986444997787475586e+01,-5.695805549621582031e+00,-7.833827972412109375e+00,-2.056619167327880859e+00,-3.776550292968750000e+00,-4.577636718750000000e-02,6.103515625000000000e-01
1.988076066970825195e+01,-5.779603004455566406e+00,-7.888894557952880859e+00,-1.977610588073730469e+00,-3.776550292968750000e+00,-1.754760742187500000e-01,6.103515625000000000e-01
1.989179182052612305e+01,-5.779603004455566406e+00,-7.888894557952880859e+00,-1.977610588073730469e+00,-3.692626953125000000e+00,-1.754760742187500000e-01,6.103515625000000000e-01
1.990711808204650879e+01,-5.779603004455566406e+00,-7.888894557952880859e+00,-1.977610588073730469e+00,-3.501892089843750000e+00,-1.754760742187500000e-01,6.332397460937500000e-01
1.992135691642761230e+01,-5.801150798797607422e+00,-7.807491779327392578e+00,-1.991975784301757590e+00,-3.692626953125000000e+00,-1.983642578125000000e-01,6.332397460937500000e-01
1.993368363380432129e+01,-5.695805549621582031e+00,-7.807491779327392578e+00,-1.968033790588378906e+00,-3.715515136718750000e+00,-2.670288085937500000e-01,6.332397460937500000e-01
1.994927954673767090e+01,-5.695805549621582031e+00,-7.826645374298095703e+00,-1.991975784301757590e+00,-3.715515136718750000e+00,-2.670288085937500000e-01,5.950927734375000000e-01
1.996315288543701172e+01,-5.695805549621582031e+00,-7.826645374298095703e+00,-1.970427989959716797e+00,-3.570556640625000000e+00,0.000000000000000000e+00,7.629394531250000000e-01
1.997547149658203125e+01,-5.662286758422851562e+00,-7.826645374298095703e+00,-1.970427989959716797e+00,-3.570556640625000000e+00,1.525878906250000000e-01,8.773803710937500000e-01
1.998780035972595215e+01,-5.827486991882324219e+00,-7.848193168640136719e+00,-1.915361285209655984e+00,-3.684997558593750000e+00,1.525878906250000000e-01,8.773803710937500000e-01
2.000528669357299805e+01,-5.726930141448974609e+00,-7.862558364868164062e+00,-1.915361285209655984e+00,-3.875732421875000000e+00,-9.155273437500000000e-02,8.773803710937500000e-01
2.001650309562683105e+01,-5.726930141448974609e+00,-7.886500358581542969e+00,-2.075772762298583984e+00,-3.684997558593750000e+00,-9.918212890625000000e-02,8.697509765625000000e-01
2.002994132041931152e+01,-5.726930141448974609e+00,-7.886500358581542969e+00,-2.075772762298583984e+00,-3.433227539062500000e+00,-9.918212890625000000e-02,8.697509765625000000e-01
2.004727053642272949e+01,-5.691017150878906250e+00,-7.872135162353515625e+00,-2.001552581787109375e+00,-3.433227539062500000e+00,-3.814697265625000000e-02,8.087158203125000000e-01
2.005818963050842285e+01,-5.738901615142822266e+00,-7.857769966125488281e+00,-1.929726481437683105e+00,-3.578186035156250000e+00,1.983642578125000000e-01,5.187988281250000000e-01
2.007182407379150391e+01,-5.738901615142822266e+00,-7.857769966125488281e+00,-2.001552581787109375e+00,-3.784179687500000000e+00,-3.814697265625000000e-02,8.087158203125000000e-01
2.008620762825012207e+01,-5.738901615142822266e+00,-7.857769966125488281e+00,-2.047042369842529297e+00,-3.578186035156250000e+00,-3.280639648437500000e-01,1.014709472656250000e+00
2.009937143325805664e+01,-5.772420406341552734e+00,-7.826645374298095703e+00,-2.047042369842529297e+00,-3.562927246093750000e+00,-3.280639648437500000e-01,1.014709472656250000e+00
2.011091494560241699e+01,-5.712564945220947266e+00,-7.869740962982177734e+00,-2.039859771728516069e+00,-3.562927246093750000e+00,-2.288818359375000000e-02,7.476806640625000000e-01
2.012821769714355469e+01,-5.667075157165527344e+00,-7.862558364868164062e+00,-2.035071372985839844e+00,-3.601074218750000000e+00,2.288818359375000000e-02,3.585815429687500000e-01
2.013921809196472168e+01,-5.667075157165527344e+00,-7.862558364868164062e+00,-2.035071372985839844e+00,-3.639221191406250000e+00,3.814697265625000000e-02,3.280639648437500000e-01
2.015284180641174316e+01,-5.722141742706298828e+00,-7.754819393157958984e+00,-2.097320556640625000e+00,-3.601074218750000000e+00,2.441406250000000000e-01,2.441406250000000000e-01
2.016718626022338867e+01,-5.791574001312255859e+00,-7.745242595672607422e+00,-2.097320556640625000e+00,-3.349304199218750000e+00,3.051757812500000000e-01,2.441406250000000000e-01
2.017973947525024414e+01,-5.722141742706298828e+00,-7.754819393157958984e+00,-2.051830768585205078e+00,-3.349304199218750000e+00,6.866455078125000000e-01,-1.907348632812500000e-01
2.019471025466918945e+01,-5.717353343963623047e+00,-7.790732383728027344e+00,-2.051830768585205078e+00,-3.372192382812500000e+00,1.007080078125000000e+00,-8.316040039062500000e-01
2.020690250396728516e+01,-5.693411350250244141e+00,-7.790732383728027344e+00,-2.051830768585205078e+00,-3.372192382812500000e+00,2.479553222656250000e+00,-1.678466796875000000e+00
2.022190642356872559e+01,-5.693411350250244141e+00,-7.781155586242675781e+00,-2.035071372985839844e+00,-2.326965332031250000e+00,3.166198730468750000e+00,-1.930236816406250000e+00
2.023438549041748047e+01,-5.657498359680175781e+00,-7.781155586242675781e+00,-2.035071372985839844e+00,-1.411437988281250000e+00,3.486633300781250000e+00,-2.136230468750000000e+00
2.024860811233520508e+01,-5.786785602569580078e+00,-7.747636795043945312e+00,-2.059013366699218750e+00,-1.411437988281250000e+00,3.486633300781250000e+00,-2.136230468750000000e+00
2.026050710678100586e+01,-5.592854976654052734e+00,-7.812280178070068359e+00,-2.059013366699218750e+00,-1.411437988281250000e+00,2.609252929687500000e+00,-1.655578613281250000e+00
2.027560043334960938e+01,-5.805939197540283203e+00,-7.812280178070068359e+00,-2.085349559783935547e+00,-9.155273437500000000e-01,2.082824707031250000e+00,-9.994506835937500000e-01
2.029148983955383301e+01,-5.805939197540283203e+00,-7.812280178070068359e+00,-2.068590164184570312e+00,-9.155273437500000000e-02,2.479553222656250000e+00,-9.994506835937500000e-01
2.030301904678344727e+01,-5.805939197540283203e+00,-7.728482723236083984e+00,-2.068590164184570312e+00,-2.975463867187500000e-01,2.479553222656250000e+00,-1.586914062500000000e+00
2.031792736053466797e+01,-5.657498359680175781e+00,-7.728482723236083984e+00,-2.059013366699218750e+00,-1.678466796875000000e-01,4.455566406250000000e+00,-4.371643066406250000e+00
2.032972812652587891e+01,-5.640738964080810547e+00,-7.852981567382812500e+00,-2.059013366699218750e+00,-1.678466796875000000e-01,4.455566406250000000e+00,-4.371643066406250000e+00
2.034502267837524414e+01,-5.640738964080810547e+00,-7.852981567382812500e+00,-1.903390288352966309e+00,8.468627929687500000e-01,2.830505371093750000e+00,-2.258300781250000000e+00
2.035647940635681152e+01,-5.829881191253662109e+00,-7.781155586242675781e+00,-2.054224967956542969e+00,8.468627929687500000e-01,2.426147460937500000e+00,-7.858276367187500000e-01
2.037183785438537598e+01,-5.832275390625000000e+00,-7.781155586242675781e+00,-2.054224967956542969e+00,-3.051757812500000000e-01,2.426147460937500000e+00,-2.258300781250000000e+00
2.038712811470031738e+01,-5.832275390625000000e+00,-7.975085735321044922e+00,-2.068590164184570312e+00,-3.051757812500000000e-01,4.402160644531250000e+00,-3.074645996093750000e+00
2.039931106567382812e+01,-5.793968200683593750e+00,-8.001421928405761719e+00,-2.068590164184570312e+00,5.950927734375000000e-01,4.402160644531250000e+00,-3.074645996093750000e+00
2.041400361061096191e+01,-5.487510204315185547e+00,-8.001421928405761719e+00,-2.068590164184570312e+00,1.152038574218750000e+00,1.907348632812500000e+00,-2.731323242187500000e+00
2.042529940605163574e+01,-5.650315761566162109e+00,-7.757213592529296875e+00,-2.025494575500488281e+00,1.152038574218750000e+00,1.747131347656250000e+00,-1.739501953125000000e+00
2.044099187850952148e+01,-5.609614372253417969e+00,-7.757213592529296875e+00,-2.037465572357177734e+00,1.235961914062500000e+00,1.907348632812500000e+00,-2.731323242187500000e+00
2.045294475555419922e+01,-5.609614372253417969e+00,-7.814674377441406250e+00,-2.037465572357177734e+00,1.510620117187500000e+00,4.333496093750000000e+00,-5.256652832031250000e+00
2.046771001815795898e+01,-5.609614372253417969e+00,-7.833827972412109375e+00,-2.276885747909545898e+00,2.433776855468750000e+00,4.531860351562500000e+00,-5.256652832031250000e+00
2.048319292068481445e+01,-5.626373767852783203e+00,-7.931990146636962891e+00,-2.276885747909545898e+00,2.433776855468750000e+00,4.531860351562500000e+00,-3.059387207031250000e+00
2.049541902542114258e+01,-5.638344764709472656e+00,-8.087613105773925781e+00,-2.276885747909545898e+00,3.425598144531250000e+00,2.113342285156250000e+00,-2.685546875000000000e+00
2.050997185707092285e+01,-5.638344764709472656e+00,-7.931990146636962891e+00,-1.692700624465942383e+00,4.989624023437500000e+00,2.113342285156250000e+00,-2.685546875000000000e+00
2.052156281471252441e+01,-5.667075157165527344e+00,-7.697358131408691406e+00,-1.668758511543273926e+00,4.989624023437500000e+00,3.128051757812500000e+00,-6.210327148437500000e+00
2.053737807273864746e+01,-5.475539207458496094e+00,-7.697358131408691406e+00,-1.644816517829895020e+00,2.479553222656250000e+00,4.020690917968750000e+00,-6.210327148437500000e+00
2.054881167411804199e+01,-5.693411350250244141e+00,-7.788338184356689453e+00,-1.668758511543273926e+00,2.479553222656250000e+00,4.020690917968750000e+00,-5.851745605468750000e+00
2.056365060806274414e+01,-5.542576789855957031e+00,-8.078036308288574219e+00,-1.884236693382263184e+00,2.639770507812500000e+00,4.646301269531250000e+00,-5.851745605468750000e+00
2.057929134368896484e+01,-5.542576789855957031e+00,-8.413224220275878906e+00,-2.080561161041260210e+00,2.639770507812500000e+00,-2.365112304687500000e-01,-3.120422363281250000e+00
2.059384679794311523e+01,-5.542576789855957031e+00,-8.152256965637207031e+00,-2.080561161041260210e+00,5.645751953125000000e+00,3.959655761718750000e+00,-4.272460937500000000e+00
2.060608983039855957e+01,-4.965574264526367188e+00,-8.152256965637207031e+00,-2.080561161041260210e+00,1.495361328125000000e+00,2.120971679687500000e+00,-2.838134765625000000e+00
2.061843347549438477e+01,-5.190629005432128906e+00,-8.013393402099609375e+00,-2.221819162368774414e+00,4.508972167968750000e+00,2.120971679687500000e+00,-2.838134765625000000e+00
2.063525247573852539e+01,-5.190629005432128906e+00,-7.929595947265625000e+00,-1.774103403091430886e+00,4.508972167968750000e+00,-5.523681640625000000e+00,4.737854003906250000e+00
2.064648103713989258e+01,-5.190629005432128906e+00,-7.783549785614013672e+00,-1.929726481437683105e+00,4.508972167968750000e+00,-5.523681640625000000e+00,4.737854003906250000e+00
2.066028022766113281e+01,-5.408501625061035156e+00,-7.611166954040527344e+00,-1.680729508399963379e+00,3.753662109375000000e+00,1.632690429687500000e+00,1.762390136718750000e+00
2.067414999008178711e+01,-4.994304656982421875e+00,-7.611166954040527344e+00,-1.929726481437683105e+00,2.189636230468750000e+00,1.632690429687500000e+00,1.762390136718750000e+00
2.068654727935791016e+01,-4.288015365600585938e+00,-8.836997985839843750e+00,-3.088520050048828125e+00,2.189636230468750000e+00,-1.910400390625000000e+01,1.071929931640625000e+01
2.070185780525207520e+01,-5.937620401382446289e-01,-8.990227699279785156e+00,-5.094861030578613281e+00,6.027221679687500000e+00,-1.910400390625000000e+01,1.455688476562500000e+01
2.071615529060363770e+01,-5.937620401382446289e-01,-8.990227699279785156e+00,-5.094861030578613281e+00,6.027221679687500000e+00,-1.490020751953125000e+01,1.455688476562500000e+01
2.072953820228576660e+01,-3.696647405624389648e+00,-8.817844390869140625e+00,-3.648763418197631836e+00,6.027221679687500000e+00,-8.811950683593750000e+00,1.026916503906250000e+01
2.074155569076538086e+01,-4.223371505737304688e+00,-8.571242332458496094e+00,-2.044648170471191406e+00,6.454467773437500000e+00,-1.490020751953125000e+01,1.026916503906250000e+01
2.075829291343688965e+01,-4.790797710418701172e+00,-8.384493827819824219e+00,-1.422155737876892090e+00,6.454467773437500000e+00,-4.592895507812500000e+00,6.179809570312500000e+00
2.076787829399108887e+01,-5.219359397888183594e+00,-8.384493827819824219e+00,-1.422155737876892090e+00,6.454467773437500000e+00,2.870941162109375000e+01,-1.419830322265625000e+01
2.078283500671386719e+01,-5.219359397888183594e+00,-8.123526573181152344e+00,-2.542642116546630859e+00,-5.500793457031250000e+00,2.870941162109375000e+01,-2.639007568359375000e+01
2.079713702201843262e+01,-5.219359397888183594e+00,-8.719682693481445312e+00,-2.710236310958862305e+00,1.812744140625000000e+01,2.014160156250000000e+00,-1.419830322265625000e+01
2.081048154830932617e+01,-5.971138954162597656e+00,-8.123526573181152344e+00,-2.542642116546630859e+00,-1.296997070312500000e-01,2.014160156250000000e+00,-6.607055664062500000e+00
2.082494020462036133e+01,-6.136338710784912109e+00,-8.485051155090332031e+00,-2.317587137222290039e+00,-1.296997070312500000e-01,-9.078979492187500000e+00,7.736206054687500000e+00
2.083656978607177734e+01,-6.136338710784912109e+00,-8.037335395812988281e+00,-2.317587137222290039e+00,-1.296997070312500000e-01,-6.240844726562500000e+00,7.141113281250000000e+00
2.085202121734619141e+01,-5.128379821777343750e+00,-8.485051155090332031e+00,-2.410961151123046875e+00,1.037597656250000000e+00,-6.240844726562500000e+00,7.141113281250000000e+00
2.086453509330749512e+01,-5.128379821777343750e+00,-8.037335395812988281e+00,-2.410961151123046875e+00,2.510070800781250000e+00,-4.173278808593750000e+00,2.517700195312500000e-01
2.087887048721313477e+01,-4.955997467041015625e+00,-8.097189903259277344e+00,-1.249773263931274414e+00,2.510070800781250000e+00,3.982543945312500000e+00,-7.705688476562500000e-01
2.089103651046752930e+01,-5.578489780426025391e+00,-8.097189903259277344e+00,-1.249773263931274414e+00,2.510070800781250000e+00,-3.601074218750000000e+00,2.517700195312500000e-01
2.090613055229187012e+01,-4.955997467041015625e+00,-8.097189903259277344e+00,-1.139639973640441895e+00,2.250671386718750000e+00,3.982543945312500000e+00,-3.356933593750000000e+00
2.091731739044189453e+01,-5.578489780426025391e+00,-8.221688270568847656e+00,-1.872265696525573508e+00,-2.746582031250000000e+00,-3.601074218750000000e+00,-9.078979492187500000e-01
2.093329668045043945e+01,-5.090072631835937500e+00,-7.845798969268798828e+00,-1.872265696525573508e+00,-2.746582031250000000e+00,-8.316040039062500000e-01,-1.853942871093750000e+00
2.094517588615417480e+01,-5.442020416259765625e+00,-7.553706169128417969e+00,-1.872265696525573508e+00,-3.479003906250000000e+00,-8.621215820312500000e-01,-9.078979492187500000e-01
2.095987343788146973e+01,-5.442020416259765625e+00,-7.553706169128417969e+00,-1.896207690238952859e+00,-2.288818359375000000e-01,-8.316040039062500000e-01,-1.853942871093750000e+00
2.097467136383056641e+01,-5.442020416259765625e+00,-7.793126583099365234e+00,-8.259995579719543457e-01,-2.899169921875000000e-01,-8.621215820312500000e-01,4.768371582031250000e+00
2.098687028884887695e+01,-6.009446144104003906e+00,-7.793126583099365234e+00,-1.256955862045288086e+00,-2.899169921875000000e-01,1.930236816406250000e+00,-1.296997070312500000e+00
2.100239229202270508e+01,-5.058948040008544922e+00,-7.793126583099365234e+00,-1.256955862045288086e+00,-2.525329589843750000e+00,-2.326965332031250000e+00,3.135681152343750000e+00
2.101318717002868652e+01,-5.374982833862304688e+00,-8.228871345520019531e+00,-1.256955862045288086e+00,-5.256652832031250000e+00,3.890991210937500000e-01,-2.212524414062500000e-01
2.102910590171813965e+01,-5.374982833862304688e+00,-8.228871345520019531e+00,-1.276109457015991211e+00,-2.525329589843750000e+00,-2.326965332031250000e+00,2.937316894531250000e+00
2.104092979431152344e+01,-5.374982833862304688e+00,-8.109161376953125000e+00,-1.019929885864257812e+00,-5.256652832031250000e+00,3.890991210937500000e-01,-2.212524414062500000e-01
2.105616235733032227e+01,-6.174645900726318359e+00,-8.109161376953125000e+00,-1.692700624465942383e+00,1.998901367187500000e+00,-1.190185546875000000e+00,1.953125000000000000e+00
2.107036948204040527e+01,-4.790797710418701172e+00,-8.109161376953125000e+00,-8.954313993453979492e-01,-5.653381347656250000e+00,7.400512695312500000e-01,-6.256103515625000000e-01
2.108326268196105957e+01,-6.174645900726318359e+00,-8.418012619018554688e+00,-2.621650934219360352e+00,2.616882324218750000e+00,-1.190185546875000000e+00,1.953125000000000000e+00
2.109738278388977051e+01,-3.801992177963256836e+00,-7.855375766754150391e+00,6.416460275650024414e-01,-2.075195312500000000e+00,7.400512695312500000e-01,-6.256103515625000000e-01
2.111008000373840332e+01,-6.706158638000488281e+00,-8.487444877624511719e+00,-2.631227731704711914e+00,-2.075195312500000000e+00,-1.113891601562500000e+00,5.439758300781250000e+00
2.112531781196594238e+01,-3.936067581176757812e+00,-7.603984355926513672e+00,-6.153098344802856445e-01,-2.075195312500000000e+00,-1.113891601562500000e+00,-3.814697265625000000e+00
2.113990378379821777e+01,-6.706158638000488281e+00,-7.603984355926513672e+00,-2.631227731704711914e+00,-7.995605468750000000e+00,-1.113891601562500000e+00,5.569458007812500000e+00
2.115224003791809082e+01,-5.190629005432128906e+00,-7.603984355926513672e+00,-9.241618514060974121e-01,-4.852294921875000000e+00,-1.068115234375000000e+00,-3.814697265625000000e+00
2.116720247268676758e+01,-6.727706432342529297e+00,-7.563282966613769531e+00,-2.408566951751708984e+00,-4.852294921875000000e+00,-1.068115234375000000e+00,3.433227539062500000e+00
2.117910981178283691e+01,-5.190629005432128906e+00,-7.979874134063720703e+00,-9.241618514060974121e-01,-4.852294921875000000e+00,3.341674804687500000e+00,-1.747131347656250000e+00
2.119366693496704102e+01,-6.727706432342529297e+00,-7.979874134063720703e+00,-2.408566951751708984e+00,-1.594543457031250000e+00,-8.010864257812500000e-01,3.433227539062500000e+00
2.120577454566955566e+01,-4.180275917053222656e+00,-7.979874134063720703e+00,-8.714894056320190430e-01,-1.594543457031250000e+00,3.684997558593750000e+00,-1.747131347656250000e+00
2.122314143180847168e+01,-7.012616634368896484e+00,-8.786720275878906250e+00,-3.217807054519653320e+00,-1.594543457031250000e+00,-8.010864257812500000e-01,5.973815917968750000e+00
2.123382139205932617e+01,-5.403713226318359375e+00,-7.405265808105468750e+00,1.508347094058989923e-01,-1.029968261718750000e+00,3.936767578125000000e+00,-5.859375000000000000e+00
2.124834036827087402e+01,-5.530605792999267578e+00,-7.433996200561523438e+00,-1.946485996246337891e+00,-7.011413574218750000e+00,-6.507873535156250000e+00,9.017944335937500000e+00
2.126519203186035156e+01,-5.530605792999267578e+00,-7.433996200561523438e+00,-1.946485996246337891e+00,-2.769470214843750000e+00,3.936767578125000000e+00,1.480102539062500000e+00
2.127688264846801758e+01,-5.530605792999267578e+00,-7.433996200561523438e+00,-1.946485996246337891e+00,-2.784729003906250000e+00,3.967285156250000000e+00,1.480102539062500000e+00
2.129006314277648926e+01,-4.307168960571289062e+00,-5.758055210113525391e+00,-2.681505978107451837e-01,-2.784729003906250000e+00,3.967285156250000000e+00,1.480102539062500000e+00
2.130418491363525391e+01,-4.307168960571289062e+00,-5.758055210113525391e+00,-2.681505978107451837e-01,-1.833343505859375000e+01,-1.805114746093750000e+01,1.724243164062500000e+00
2.131705689430236816e+01,-8.860939979553222656e+00,-6.746860504150390625e+00,-3.639186620712279829e+00,-1.833343505859375000e+01,-1.805114746093750000e+01,7.369995117187500000e+00
2.132865357398986816e+01,-8.860939979553222656e+00,-8.710105895996093750e+00,-3.639186620712279829e+00,5.668640136718750000e+00,-1.328277587890625000e+01,1.724243164062500000e+00
2.134613275527954102e+01,-5.580883979797363281e+00,-7.364564418792724609e+00,-3.617638826370239258e+00,5.668640136718750000e+00,3.814697265625000000e-01,7.369995117187500000e+00
2.135888767242431641e+01,-4.814739704132080078e+00,-7.639897346496582031e+00,-1.027112483978271706e+00,4.707336425781250000e+00,-1.328277587890625000e+01,1.216888427734375000e+01
2.137121367454528809e+01,-4.860229492187500000e+00,-7.639897346496582031e+00,-6.200982332229614258e-01,2.319335937500000000e+00,-1.529693603515625000e+01,1.651000976562500000e+01
2.138817834854125977e+01,-4.814739704132080078e+00,-7.639897346496582031e+00,-6.200982332229614258e-01,-1.480102539062500000e+00,-1.529693603515625000e+01,1.651000976562500000e+01
2.139971017837524414e+01,-4.860229492187500000e+00,-7.951143741607666016e+00,-8.236053586006164551e-01,-4.211425781250000000e+00,-1.262664794921875000e+01,8.010864257812500000e+00
2.141284799575805664e+01,-7.022193431854248047e+00,-7.702146530151367188e+00,-1.043871879577636719e+00,-4.211425781250000000e+00,8.949279785156250000e+00,-1.174926757812500000e+00
2.142714881896972656e+01,-7.022193431854248047e+00,-8.008605003356933594e+00,-2.451662540435791016e+00,3.837585449218750000e+00,3.067016601562500000e+00,-1.777648925781250000e+00
2.143949508666992188e+01,-5.695805549621582031e+00,-7.702146530151367188e+00,-2.686294317245483398e+00,4.989624023437500000e+00,3.067016601562500000e+00,-1.777648925781250000e+00
2.145199942588806152e+01,-4.872200489044189453e+00,-8.008605003356933594e+00,-2.451662540435791016e+00,3.837585449218750000e+00,3.067016601562500000e+00,2.349853515625000000e+00
2.146715903282165527e+01,-4.872200489044189453e+00,-7.577648162841796875e+00,8.762778043746948242e-01,-5.851745605468750000e+00,9.025573730468750000e+00,1.673126220703125000e+01
2.147853016853332520e+01,-7.943961143493652344e+00,-7.560888767242431641e+00,8.762778043746948242e-01,-6.767272949218750000e+00,9.025573730468750000e+00,2.349853515625000000e+00
2.149414134025573730e+01,-7.943961143493652344e+00,-7.546523571014404297e+00,-1.247379064559936301e+00,-5.851745605468750000e+00,6.103515625000000000e-01,9.170532226562500000e+00
2.150607728958129883e+01,-8.018181800842285156e+00,-7.546523571014404297e+00,-1.247379064559936301e+00,-1.228332519531250000e+00,6.103515625000000000e-01,-6.408691406250000000e+00
2.152038407325744629e+01,-8.018181800842285156e+00,-7.240066051483154297e+00,-1.386242747306823508e+00,5.607604980468750000e+00,-2.301025390625000000e+01,9.170532226562500000e+00
2.153607344627380371e+01,-8.018181800842285156e+00,-7.240066051483154297e+00,-1.386242747306823508e+00,5.607604980468750000e+00,-2.301025390625000000e+01,1.042175292968750000e+01
2.154806590080261230e+01,-6.883329868316650391e+00,-9.279925346374511719e+00,-1.386242747306823508e+00,5.607604980468750000e+00,-3.516387939453125000e+01,2.364349365234375000e+01
2.156252408027648926e+01,-3.852270364761352983e+00,-9.282320022583007812e+00,-3.667917013168334961e+00,5.867004394531250000e+00,-5.119323730468750000e+01,2.973175048828125000e+01
2.157455420494079590e+01,-6.883329868316650391e+00,-9.991003990173339844e+00,-7.275979042053222656e+00,7.392883300781250000e+00,-8.742523193359375000e+01,4.382324218750000000e+01
2.159028172492980957e+01,-7.513004779815673828e+00,-1.223915863037109375e+01,-1.701798629760742188e+01,3.633880615234375000e+01,-1.672439575195312500e+02,5.845642089843750000e+01
2.160731196403503418e+01,-7.513004779815673828e+00,-1.223915863037109375e+01,-1.701798629760742188e+01,3.633880615234375000e+01,-1.672439575195312500e+02,5.845642089843750000e+01
2.162293219566345215e+01,-6.641515254974365234e+00,-6.897695064544677734e+00,-8.236053586006164551e-01,1.395416259765625000e+01,1.655578613281250000e+00,1.190948486328125000e+01
2.163807010650634766e+01,-6.641515254974365234e+00,-6.897695064544677734e+00,-8.236053586006164551e-01,3.562927246093750000e+00,1.655578613281250000e+00,1.190948486328125000e+01
2.165006613731384277e+01,-6.641515254974365234e+00,-7.165845394134521484e+00,-8.236053586006164551e-01,-3.211975097656250000e+00,-2.151489257812500000e+00,8.979797363281250000e+00
2.166540718078613281e+01,-7.144297599792480469e+00,-7.165845394134521484e+00,-1.333570361137389915e+00,-3.044128417968750000e+00,-2.151489257812500000e+00,2.647399902343750000e+00
2.167986798286437988e+01,-5.600037574768066406e+00,-7.165845394134521484e+00,-1.213860273361206055e+00,-3.181457519531250000e+00,-2.693176269531250000e+00,-5.187988281250000000e-01
2.169151043891906738e+01,-5.600037574768066406e+00,-7.333439826965332031e+00,-1.213860273361206055e+00,-3.181457519531250000e+00,9.231567382812500000e-01,1.098632812500000000e+00
2.170646047592163086e+01,-5.600037574768066406e+00,-7.936778545379638672e+00,-1.213860273361206055e+00,-4.302978515625000000e+00,2.532958984375000000e+00,1.098632812500000000e+00
2.171837830543518066e+01,-6.411672115325927734e+00,-7.376535415649414062e+00,-4.620809257030487061e-01,-4.302978515625000000e+00,2.532958984375000000e+00,1.098632812500000000e+00
2.173412990570068359e+01,-6.411672115325927734e+00,-7.376535415649414062e+00,-5.363011956214904785e-01,-4.173278808593750000e+00,2.212524414062500000e-01,8.926391601562500000e-01
2.174645662307739258e+01,-6.411672115325927734e+00,-7.376535415649414062e+00,-5.363011956214904785e-01,-3.021240234375000000e+00,-1.777648925781250000e+00,8.926391601562500000e-01
2.176102709770202637e+01,-5.908889770507812500e+00,-7.232883453369140625e+00,-5.363011956214904785e-01,-4.173278808593750000e+00,-1.777648925781250000e+00,8.926391601562500000e-01
2.177534008026123047e+01,-6.514622688293457031e+00,-7.903259754180908203e+00,-7.541735172271728516e-01,-4.592895507812500000e+00,5.950927734375000000e-01,-1.907348632812500000e-01
2.178732848167419434e+01,-6.315904140472412109e+00,-7.079654216766357422e+00,-7.541735172271728516e-01,-4.592895507812500000e+00,5.950927734375000000e-01,-1.907348632812500000e-01
2.180329990386962891e+01,-6.315904140472412109e+00,-7.079654216766357422e+00,-7.541735172271728516e-01,-4.333496093750000000e+00,5.950927734375000000e-01,-7.629394531250000000e-02
2.181514739990234375e+01,-6.014234542846679688e+00,-7.079654216766357422e+00,-1.582567334175110085e+00,-3.822326660156250000e+00,-5.950927734375000000e-01,1.098632812500000000e+00
2.182937812805175781e+01,-5.698199748992919922e+00,-7.615955352783203125e+00,-5.626373887062072754e-01,-4.333496093750000000e+00,-5.950927734375000000e-01,1.022338867187500000e+00
2.184534907341003418e+01,-6.014234542846679688e+00,-7.797914981842041016e+00,-1.323993563652038574e+00,-3.822326660156250000e+00,-8.468627929687500000e-01,1.098632812500000000e+00
2.185919213294982910e+01,-7.031770229339599609e+00,-7.797914981842041016e+00,-1.323993563652038574e+00,-2.540588378906250000e+00,-8.468627929687500000e-01,1.022338867187500000e+00
2.187135767936706543e+01,-7.031770229339599609e+00,-7.070077419281005859e+00,-1.323993563652038574e+00,-2.540588378906250000e+00,5.645751953125000000e-01,-1.068115234375000000e+00
2.188391518592834473e+01,-6.275202751159667969e+00,-7.070077419281005859e+00,-1.663970112800597922e+00,-3.295898437500000000e+00,5.645751953125000000e-01,-1.068115234375000000e+00
2.190117788314819336e+01,-5.808333396911621094e+00,-6.866570472717285156e+00,1.053448766469955028e-01,-3.295898437500000000e+00,9.155273437500000000e-02,6.561279296875000000e-01
2.191202688217163086e+01,-5.808333396911621094e+00,-7.867346763610839844e+00,-1.113303780555725098e+00,-3.295898437500000000e+00,-8.392333984375000000e-02,2.571105957031250000e+00
2.192576980590820312e+01,-6.672639846801757812e+00,-7.867346763610839844e+00,-1.113303780555725098e+00,-3.967285156250000000e-01,-1.876831054687500000e+00,2.571105957031250000e+00
2.194324851036071777e+01,-6.672639846801757812e+00,-7.867346763610839844e+00,-1.113303780555725098e+00,-5.668640136718750000e+00,-4.730224609375000000e-01,1.739501953125000000e+00
2.195402526855468750e+01,-5.987898349761962891e+00,-7.563282966613769531e+00,-1.118092179298400879e+00,-5.279541015625000000e+00,-4.730224609375000000e-01,-1.716613769531250000e+00
2.196826601028442383e+01,-5.781997203826904297e+00,-7.563282966613769531e+00,-1.041477680206298828e+00,-5.279541015625000000e+00,5.340576171875000000e-01,-1.716613769531250000e+00
2.198215270042419434e+01,-5.987898349761962891e+00,-7.563282966613769531e+00,-1.041477680206298828e+00,-2.937316894531250000e+00,5.340576171875000000e-01,-5.340576171875000000e-02
2.199513387680053711e+01,-6.311115741729736328e+00,-7.635108947753906250e+00,-1.036689281463623047e+00,-2.937316894531250000e+00,1.983642578125000000e-01,3.089904785156250000e+00
2.200676536560058594e+01,-7.074865818023681641e+00,-7.635108947753906250e+00,-1.036689281463623047e+00,-4.547119140625000000e+00,1.983642578125000000e-01,3.089904785156250000e+00
2.202424430847167969e+01,-7.074865818023681641e+00,-7.635108947753906250e+00,-6.464344263076782227e-01,-4.547119140625000000e+00,-1.754760742187500000e+00,-2.288818359375000000e-01
2.203497195243835449e+01,-6.196193695068359375e+00,-7.307103633880615234e+00,-8.738836050033569336e-01,-5.516052246093750000e+00,9.994506835937500000e-01,-1.770019531250000000e+00
2.204835724830627441e+01,-6.059724330902099609e+00,-7.307103633880615234e+00,-8.738836050033569336e-01,-2.006530761718750000e+00,-1.724243164062500000e+00,-2.288818359375000000e-01
2.206620407104492188e+01,-5.784391403198242188e+00,-7.307103633880615234e+00,-8.738836050033569336e-01,-6.729125976562500000e+00,2.006530761718750000e+00,0.000000000000000000e+00
2.207676744461059570e+01,-6.059724330902099609e+00,-7.802703380584716797e+00,-1.735796213150024414e+00,-1.228332519531250000e+00,-1.701354980468750000e+00,2.746582031250000000e+00
2.209099769592285156e+01,-6.402095317840576172e+00,-7.489062786102294922e+00,-5.386953949928283691e-01,-3.135681152343750000e+00,3.585815429687500000e-01,0.000000000000000000e+00
2.210523128509521484e+01,-6.402095317840576172e+00,-7.651868343353270596e+00,-1.156399369239807129e+00,-3.135681152343750000e+00,3.585815429687500000e-01,-7.553100585937500000e-01
2.211805319786071777e+01,-6.308721542358398438e+00,-7.489062786102294922e+00,-5.793967843055725098e-01,-3.311157226562500000e+00,3.585815429687500000e-01,-7.553100585937500000e-01
2.213254022598266602e+01,-5.834669589996337891e+00,-7.508216381072998047e+00,-7.589619159698486328e-01,-4.478454589843750000e+00,5.569458007812500000e-01,7.400512695312500000e-01
2.214458680152893066e+01,-5.834669589996337891e+00,-7.508216381072998047e+00,-7.589619159698486328e-01,-3.356933593750000000e+00,-1.068115234375000000e-01,2.098083496093750000e+00
2.216043424606323242e+01,-6.402095317840576172e+00,-7.936778545379638672e+00,-1.180341362953186035e+00,-3.906250000000000000e+00,3.814697265625000000e-01,2.098083496093750000e+00
2.217231464385986328e+01,-6.402095317840576172e+00,-7.936778545379638672e+00,-1.180341362953186035e+00,-3.547668457031250000e+00,3.814697265625000000e-01,-1.678466796875000000e-01
2.218710732460021973e+01,-6.083666324615479404e+00,-7.448361396789550781e+00,-1.180341362953186035e+00,-3.906250000000000000e+00,3.814697265625000000e-01,-1.678466796875000000e-01
2.219849729537963867e+01,-5.762843608856201172e+00,-7.273584842681884766e+00,-6.871358752250671387e-01,-5.149841308593750000e+00,9.460449218750000000e-01,1.541137695312500000e+00
2.221375656127929688e+01,-5.762843608856201172e+00,-7.448361396789550781e+00,-1.070208191871643066e+00,-5.149841308593750000e+00,3.128051757812500000e-01,1.770019531250000000e+00
2.222826790809631348e+01,-5.978321552276611328e+00,-7.273584842681884766e+00,-5.099649429321289062e-01,-5.081176757812500000e+00,3.128051757812500000e-01,1.899719238281250000e+00
2.224100732803344727e+01,-6.253654956817626953e+00,-7.431602001190185547e+00,-7.350199222564697266e-01,-5.081176757812500000e+00,3.128051757812500000e-01,1.899719238281250000e+00
2.225595474243164062e+01,-6.253654956817626953e+00,-7.431602001190185547e+00,-7.350199222564697266e-01,-3.051757812500000000e+00,1.754760742187500000e-01,-1.174926757812500000e+00
2.226777148246765137e+01,-5.889736175537109375e+00,-7.431602001190185547e+00,-7.350199222564697266e-01,-3.051757812500000000e+00,3.356933593750000000e-01,-1.174926757812500000e+00
2.228301978111267090e+01,-5.889736175537109375e+00,-7.874529361724852627e+00,-1.747767210006714089e+00,-2.212524414062500000e+00,3.356933593750000000e-01,2.998352050781250000e+00
2.229446434974670410e+01,-7.062894821166992188e+00,-7.192181587219238281e+00,-5.626373887062072754e-01,-2.212524414062500000e+00,4.730224609375000000e-01,2.998352050781250000e+00
2.230960798263549805e+01,-7.062894821166992188e+00,-7.524975776672363281e+00,-9.744400978088380016e-01,-2.761840820312500000e+00,4.730224609375000000e-01,-1.144409179687500000e+00
2.232493162155151367e+01,-6.028599739074707031e+00,-7.524975776672363281e+00,-9.744400978088380016e-01,-4.318237304687500000e+00,6.790161132812500000e-01,-1.144409179687500000e+00
2.233664131164550781e+01,-5.449203014373779297e+00,-7.524975776672363281e+00,-9.744400978088380016e-01,-4.318237304687500000e+00,6.790161132812500000e-01,-3.738403320312500000e-01
2.235555338859558105e+01,-5.449203014373779297e+00,-7.386112213134765625e+00,-7.517793178558349609e-01,-4.272460937500000000e+00,6.790161132812500000e-01,2.120971679687500000e+00
2.236575984954833984e+01,-6.696581840515136719e+00,-7.386112213134765625e+00,-7.517793178558349609e-01,-4.272460937500000000e+00,6.866455078125000000e-01,2.120971679687500000e+00
2.237852907180786133e+01,-6.696581840515136719e+00,-7.225700378417968750e+00,-7.517793178558349609e-01,-4.272460937500000000e+00,-1.655578613281250000e+00,-1.129150390625000000e+00
2.239234662055969238e+01,-6.160280704498291016e+00,-7.395689010620117188e+00,-7.182605266571044922e-01,-4.531860351562500000e+00,-3.814697265625000000e-02,-1.129150390625000000e+00
2.240641069412231445e+01,-6.160280704498291016e+00,-7.395689010620117188e+00,-7.182605266571044922e-01,-1.663208007812500000e+00,-3.814697265625000000e-02,1.159667968750000000e+00
2.241784930229187012e+01,-6.064512729644775391e+00,-7.395689010620117188e+00,-7.134720683097839355e-01,-6.126403808593750000e+00,7.247924804687500000e-01,1.159667968750000000e+00
2.243235683441162109e+01,-6.069301128387451172e+00,-7.908048152923583984e+00,-1.582567334175110085e+00,-3.761291503906250000e+00,7.247924804687500000e-01,1.449584960937500000e-01
2.245021557807922363e+01,-6.069301128387451172e+00,-7.491456985473632812e+00,-9.552864432334899902e-01,-3.761291503906250000e+00,-1.823425292968750000e+00,1.449584960937500000e-01
2.246051216125488281e+01,-6.344634532928466797e+00,-7.491456985473632812e+00,-9.552864432334899902e-01,-3.761291503906250000e+00,-1.823425292968750000e+00,1.449584960937500000e-01
2.247488784790039062e+01,-6.454767704010009766e+00,-7.206546783447265625e+00,-9.552864432334899902e-01,-2.029418945312500000e+00,-1.861572265625000000e+00,1.457214355468750000e+00
2.248920106887817383e+01,-6.454767704010009766e+00,-7.206546783447265625e+00,-6.871358752250671387e-01,-5.897521972656250000e+00,1.022338867187500000e+00,-6.637573242187500000e-01
2.250274109840393066e+01,-5.896918773651123047e+00,-7.520187377929686612e+00,-6.871358752250671387e-01,-4.302978515625000000e+00,1.022338867187500000e+00,2.593994140625000000e+00
2.251313829421997070e+01,-5.896918773651123047e+00,-7.623137950897216797e+00,-6.871358752250671387e-01,-4.302978515625000000e+00,1.022338867187500000e+00,1.747131347656250000e+00
2.253122305870056152e+01,-6.387730121612548828e+00,-7.520187377929686612e+00,-9.385270476341247559e-01,-4.302978515625000000e+00,6.103515625000000000e-01,1.747131347656250000e+00
2.254327034950256348e+01,-6.387730121612548828e+00,-7.508216381072998047e+00,-1.065419793128967285e+00,-2.494812011718750000e+00,-8.239746093750000000e-01,3.051757812500000000e-01
2.255557465553283691e+01,-6.157886505126953125e+00,-7.199364185333251953e+00,-9.385270476341247559e-01,-4.028320312500000000e+00,2.517700195312500000e-01,2.517700195312500000e-01
2.257336568832397461e+01,-6.157886505126953125e+00,-7.433996200561523438e+00,-1.230619668960571289e+00,-2.868652343750000000e+00,-2.365112304687500000e-01,3.051757812500000000e-01
2.258364820480346680e+01,-6.212953090667724609e+00,-7.199364185333251953e+00,-8.571242094039916992e-01,-3.425598144531250000e+00,2.288818359375000000e-01,1.518249511718750000e+00
2.259751510620117188e+01,-6.244078159332275391e+00,-7.433996200561523438e+00,-1.137245774269104004e+00,-3.425598144531250000e+00,1.449584960937500000e-01,1.518249511718750000e+00
2.261212301254272461e+01,-6.641515254974365234e+00,-8.054094314575195312e+00,-1.137245774269104004e+00,-3.425598144531250000e+00,1.449584960937500000e-01,1.518249511718750000e+00
2.262504529953002930e+01,-6.641515254974365234e+00,-8.054094314575195312e+00,-1.137245774269104004e+00,-3.578186035156250000e+00,1.449584960937500000e-01,1.060485839843750000e+00
2.263959407806396484e+01,-6.349422931671142578e+00,-7.168239593505859375e+00,-1.077390789985656738e+00,-3.578186035156250000e+00,-3.280639648437500000e-01,5.416870117187500000e-01
2.265424561500549316e+01,-5.741295814514160156e+00,-7.168239593505859375e+00,-1.077390789985656738e+00,-3.578186035156250000e+00,-4.348754882812500000e-01,-4.043579101562500000e-01
2.266630554199218750e+01,-5.717353343963623047e+00,-7.168239593505859375e+00,-1.077390789985656738e+00,-2.983093261718750000e+00,-4.348754882812500000e-01,5.416870117187500000e-01
2.267933893203735352e+01,-5.741295814514160156e+00,-7.608772754669188565e+00,-8.188169598579406738e-01,-2.983093261718750000e+00,-4.348754882812500000e-01,3.707885742187500000e+00
2.269397735595703125e+01,-6.598419666290283203e+00,-7.608772754669188565e+00,-8.188169598579406738e-01,-3.456115722656250000e+00,7.019042968750000000e-01,3.707885742187500000e+00
2.270835089683532715e+01,-6.598419666290283203e+00,-7.793126583099365234e+00,-8.906430006027221680e-01,-3.700256347656250000e+00,5.264282226562500000e-01,-5.645751953125000000e-01
2.272050857543945312e+01,-6.150703907012940341e+00,-7.793126583099365234e+00,-9.121908545494079590e-01,-3.456115722656250000e+00,5.264282226562500000e-01,-5.645751953125000000e-01
2.273687744140625000e+01,-6.014234542846679688e+00,-7.347805023193359375e+00,-8.906430006027221680e-01,-3.616333007812500000e+00,5.264282226562500000e-01,3.890991210937500000e-01
2.274736928939819336e+01,-6.150703907012940341e+00,-7.311892032623291016e+00,-9.121908545494079590e-01,-3.341674804687500000e+00,-8.468627929687500000e-01,3.890991210937500000e-01
2.276268124580383301e+01,-6.014234542846679688e+00,-7.347805023193359375e+00,-9.935936927795410156e-01,-3.341674804687500000e+00,1.831054687500000000e-01,3.890991210937500000e-01
2.277447962760925293e+01,-6.275202751159667969e+00,-7.393294811248779297e+00,-9.935936927795410156e-01,-3.341674804687500000e+00,-8.468627929687500000e-01,4.425048828125000000e-01
2.278931331634521484e+01,-6.277596950531005859e+00,-7.527369976043701172e+00,-1.015141487121582031e+00,-3.608703613281250000e+00,-1.235961914062500000e+00,8.087158203125000000e-01
2.280488491058349609e+01,-6.277596950531005859e+00,-7.393294811248779297e+00,-8.547300100326538086e-01,-3.662109375000000000e+00,-1.235961914062500000e+00,8.087158203125000000e-01
2.281651496887207031e+01,-5.839457988739013672e+00,-7.455543994903564453e+00,-1.015141487121582031e+00,-3.608703613281250000e+00,-2.441406250000000000e-01,8.087158203125000000e-01
2.283235430717468262e+01,-5.839457988739013672e+00,-7.455543994903564453e+00,-1.256955862045288086e+00,-3.540039062500000000e+00,-2.441406250000000000e-01,1.388549804687500000e+00
2.284425759315490723e+01,-6.234500885009765625e+00,-7.788338184356689453e+00,-1.256955862045288086e+00,-3.387451171875000000e+00,-2.441406250000000000e-01,1.441955566406250000e+00
2.285911250114440918e+01,-6.493074893951416016e+00,-7.788338184356689453e+00,-1.197100877761840820e+00,-3.387451171875000000e+00,-4.730224609375000000e-01,1.441955566406250000e+00
2.287120771408081055e+01,-6.493074893951416016e+00,-7.596801757812500000e+00,-9.744400978088380016e-01,-4.005432128906250000e+00,2.975463867187500000e-01,1.831054687500000000e-01
2.288524460792541504e+01,-6.090848922729492188e+00,-7.596801757812500000e+00,-9.744400978088380016e-01,-4.005432128906250000e+00,4.272460937500000000e-01,1.831054687500000000e-01
2.290126132965087891e+01,-6.090848922729492188e+00,-7.596801757812500000e+00,-9.744400978088380016e-01,-3.097534179687500000e+00,4.272460937500000000e-01,7.705688476562500000e-01
