# elapsed time, f3_acc_x, f3_acc_y, f3_acc_z, f3_gyro_x, f3_gyro_y, f3_gyro_z
1.495384454727172852e+01,-3.715801000595092773e+00,-8.288725852966308594e+00,-4.788403511047363281e+00,-3.601074218750000000e+00,-1.602172851562500000e-01,5.111694335937500000e-01
1.496818208694458008e+01,-3.663128614425659180e+00,-8.315062522888183594e+00,-4.714182853698730469e+00,-3.669738769531250000e+00,-1.831054687500000000e-01,6.027221679687500000e-01
1.498173332214355469e+01,-3.663128614425659180e+00,-8.300697326660156250e+00,-4.714182853698730469e+00,-3.715515136718750000e+00,-1.831054687500000000e-01,7.095336914062500000e-01
1.499251413345336914e+01,-3.641580820083618164e+00,-8.300697326660156250e+00,-4.826710700988769531e+00,-3.715515136718750000e+00,-2.517700195312500000e-01,6.027221679687500000e-01
1.501041054725646973e+01,-3.617638826370239258e+00,-8.276755332946777344e+00,-4.826710700988769531e+00,-3.753662109375000000e+00,-1.373291015625000000e-01,7.095336914062500000e-01
1.502119493484497070e+01,-3.617638826370239258e+00,-8.269572257995605469e+00,-4.771644115447998047e+00,-3.692626953125000000e+00,-2.746582031250000000e-01,5.493164062500000000e-01
1.503494334220886230e+01,-3.643975019454956055e+00,-8.248024940490722656e+00,-4.771644115447998047e+00,-3.692626953125000000e+00,1.525878906250000000e-02,5.493164062500000000e-01
1.504923796653747559e+01,-3.643975019454956055e+00,-8.269572257995605469e+00,-4.788403511047363281e+00,-3.623962402343750000e+00,-2.899169921875000000e-01,5.493164062500000000e-01
1.506120562553405762e+01,-3.667917013168334961e+00,-8.293514251708984375e+00,-4.788403511047363281e+00,-3.623962402343750000e+00,-6.866455078125000000e-02,6.637573242187500000e-01
1.507684564590454102e+01,-3.624821424484252930e+00,-8.312667846679687500e+00,-4.757278919219970703e+00,-3.654479980468750000e+00,-6.866455078125000000e-02,6.637573242187500000e-01
1.509113073348999023e+01,-3.665522813796997070e+00,-8.346186637878417969e+00,-4.757278919219970703e+00,-3.944396972656250000e+00,3.356933593750000000e-01,7.324218750000000000e-01
1.510365867614746094e+01,-3.665522813796997070e+00,-8.346186637878417969e+00,-4.762067317962647373e+00,-4.035949707031250000e+00,3.356933593750000000e-01,6.103515625000000000e-01
1.511501240730285645e+01,-3.665522813796997070e+00,-8.315062522888183594e+00,-4.762067317962647373e+00,-4.035949707031250000e+00,1.373291015625000000e-01,5.493164062500000000e-01
1.513049530982971191e+01,-3.684676408767700195e+00,-8.300697326660156250e+00,-4.762067317962647373e+00,-3.707885742187500000e+00,1.373291015625000000e-01,4.577636718750000000e-01
1.514598512649536133e+01,-3.684676408767700195e+00,-8.300697326660156250e+00,-4.764461517333984375e+00,-3.616333007812500000e+00,-1.449584960937500000e-01,4.577636718750000000e-01
1.515766358375549316e+01,-3.691859006881713867e+00,-8.300697326660156250e+00,-4.764461517333984375e+00,-3.707885742187500000e+00,1.602172851562500000e-01,4.806518554687500000e-01
1.517168760299682617e+01,-3.691859006881713867e+00,-8.307879447937011719e+00,-4.764461517333984375e+00,-3.631591796875000000e+00,-1.449584960937500000e-01,7.476806640625000000e-01
1.518384242057800293e+01,-3.660734415054320845e+00,-8.264783859252929688e+00,-4.879383087158203125e+00,-3.723144531250000000e+00,-1.602172851562500000e-01,7.171630859375000000e-01
1.520059132575988770e+01,-3.660734415054320845e+00,-8.307879447937011719e+00,-4.879383087158203125e+00,-3.723144531250000000e+00,-1.602172851562500000e-01,7.171630859375000000e-01
1.521076273918151855e+01,-3.670311212539672852e+00,-8.312667846679687500e+00,-4.683058261871337891e+00,-3.723144531250000000e+00,6.866455078125000000e-02,7.171630859375000000e-01
1.522745847702026367e+01,-3.675099611282348633e+00,-8.312667846679687500e+00,-4.683058261871337891e+00,-3.860473632812500000e+00,6.866455078125000000e-02,6.179809570312500000e-01
1.523921203613281250e+01,-3.679888010025023970e+00,-8.310274124145507812e+00,-4.778826713562011719e+00,-3.509521484375000000e+00,-3.738403320312500000e-01,5.340576171875000000e-01
1.525361847877502441e+01,-3.675099611282348633e+00,-8.310274124145507812e+00,-4.778826713562011719e+00,-3.456115722656250000e+00,-3.738403320312500000e-01,4.501342773437500000e-01
1.526921892166137695e+01,-3.689464807510375977e+00,-8.310274124145507812e+00,-4.764461517333984375e+00,-3.456115722656250000e+00,-3.128051757812500000e-01,4.501342773437500000e-01
1.528138494491577148e+01,-3.694253206253052202e+00,-8.288725852966308594e+00,-4.764461517333984375e+00,-3.547668457031250000e+00,-3.128051757812500000e-01,6.179809570312500000e-01
1.529613351821899414e+01,-3.694253206253052202e+00,-8.288725852966308594e+00,-4.764461517333984375e+00,-3.776550292968750000e+00,-3.128051757812500000e-01,6.179809570312500000e-01
1.530841612815856934e+01,-3.634398221969604936e+00,-8.283937454223632812e+00,-4.824316501617431641e+00,-3.547668457031250000e+00,-3.585815429687500000e-01,6.713867187500000000e-01
1.532246184349060059e+01,-3.593696594238280806e+00,-8.281543731689453125e+00,-4.752490520477294922e+00,-3.471374511718750000e+00,-9.918212890625000000e-02,5.340576171875000000e-01
1.533472013473510742e+01,-3.593696594238280806e+00,-8.245630264282226562e+00,-4.824316501617431641e+00,-3.265380859375000000e+00,-4.501342773437500000e-01,4.806518554687500000e-01
1.534962439537048340e+01,-3.643975019454956055e+00,-8.224082946777343750e+00,-4.843470096588134766e+00,-3.471374511718750000e+00,-5.264282226562500000e-01,7.629394531250000000e-02
1.536454963684082031e+01,-3.643975019454956055e+00,-8.245630264282226562e+00,-4.843470096588134766e+00,-3.776550292968750000e+00,-5.264282226562500000e-01,-1.068115234375000000e-01
1.537686824798583984e+01,-3.581725597381591797e+00,-8.250418663024902344e+00,-4.843470096588134766e+00,-3.944396972656250000e+00,1.243591308593750000e+00,-7.934570312500000000e-01
1.539218115806579590e+01,-3.581725597381591797e+00,-8.274360656738281250e+00,-4.936843872070312500e+00,-3.944396972656250000e+00,1.617431640625000000e+00,-7.934570312500000000e-01
1.540417027473449707e+01,-3.617638826370239258e+00,-8.250418663024902344e+00,-4.936843872070312500e+00,-3.944396972656250000e+00,2.098083496093750000e+00,-1.815795898437500000e+00
1.541836810111999512e+01,-4.374206542968750000e+00,-8.274360656738281250e+00,-4.936843872070312500e+00,-4.020690917968750000e+00,5.325317382812500000e+00,-2.677917480468750000e+00
1.543198704719543457e+01,-4.374206542968750000e+00,-8.293514251708984375e+00,-4.879383087158203125e+00,-4.020690917968750000e+00,5.325317382812500000e+00,-2.677917480468750000e+00
1.544569945335388184e+01,-3.263296842575072798e+00,-8.293514251708984375e+00,-4.797980308532714844e+00,-4.020690917968750000e+00,5.325317382812500000e+00,-1.464843750000000000e+00
1.546120047569274902e+01,-3.213018655776977095e+00,-7.671021938323974609e+00,-3.857058763504027876e+00,-4.058837890625000000e+00,3.425598144531250000e+00,-1.464843750000000000e+00
1.547352409362792969e+01,-3.263296842575072798e+00,-7.671021938323974609e+00,-3.857058763504027876e+00,-2.395629882812500000e+00,3.334045410156250000e+00,-1.617431640625000000e+00
1.548687553405761719e+01,-3.792415380477904829e+00,-7.948749542236328125e+00,-4.252102375030517578e+00,-2.395629882812500000e+00,-1.998901367187500000e+00,-1.617431640625000000e+00
1.550002980232238770e+01,-3.792415380477904829e+00,-7.948749542236328125e+00,-4.563348293304443359e+00,-2.395629882812500000e+00,3.334045410156250000e+00,-1.617431640625000000e+00
1.551708650588989258e+01,-3.744531393051147905e+00,-7.948749542236328125e+00,-4.563348293304443359e+00,-1.907348632812500000e+00,-4.287719726562500000e+00,4.859924316406250000e+00
1.552770972251892090e+01,-3.734954595565795898e+00,-8.154650688171386719e+00,-4.563348293304443359e+00,-4.653930664062500000e+00,1.380920410156250000e+00,-6.103515625000000000e-01
1.554202222824096680e+01,-3.734954595565795898e+00,-8.511386871337890625e+00,-5.204994201660156250e+00,-4.379272460937500000e+00,5.722045898437500000e-01,-2.136230468750000000e-01
1.555867624282836914e+01,-3.624821424484252930e+00,-8.154650688171386719e+00,-4.297592163085937500e+00,-4.379272460937500000e+00,5.722045898437500000e-01,-4.806518554687500000e-01
1.556916141510009766e+01,-3.624821424484252930e+00,-8.511386871337890625e+00,-5.204994201660156250e+00,-4.379272460937500000e+00,-5.874633789062500000e-01,-2.136230468750000000e-01
1.558387565612792969e+01,-3.440467834472655806e+00,-8.504204750061035156e+00,-4.723759651184082031e+00,-4.394531250000000000e+00,-1.335144042968750000e+00,1.197814941406250000e+00
1.559834551811218262e+01,-3.440467834472655806e+00,-8.504204750061035156e+00,-5.013458251953125000e+00,-4.394531250000000000e+00,-1.335144042968750000e+00,1.747131347656250000e+00
1.561065340042114258e+01,-3.622427225112915039e+00,-8.504204750061035156e+00,-4.747702121734619141e+00,-4.394531250000000000e+00,1.304626464843750000e+00,1.747131347656250000e+00
1.562294292449951172e+01,-3.622427225112915039e+00,-8.506598472595214844e+00,-4.893748283386231357e+00,-4.684448242187500000e+00,1.304626464843750000e+00,-1.525878906250000000e-02
1.564015245437622070e+01,-3.610455989837647373e+00,-8.506598472595214844e+00,-4.893748283386231357e+00,-4.684448242187500000e+00,5.020141601562500000e+00,-3.356933593750000000e-01
1.565187072753906250e+01,-3.495534420013428178e+00,-8.434772491455078125e+00,-4.893748283386231357e+00,-4.440307617187500000e+00,3.051757812500000000e-02,-5.493164062500000000e-01
1.566469001770019531e+01,-3.495534420013428178e+00,-8.358158111572265625e+00,-4.398148536682128906e+00,-4.440307617187500000e+00,2.441406250000000000e-01,-1.792907714843750000e+00
1.568232965469360352e+01,-3.387795448303222656e+00,-8.087613105773925781e+00,-4.398148536682128906e+00,-5.088806152343750000e+00,2.441406250000000000e-01,-1.792907714843750000e+00
1.569325613975524902e+01,-3.768473386764526367e+00,-8.087613105773925781e+00,-4.831499099731445312e+00,-5.897521972656250000e+00,2.441406250000000000e-01,-1.792907714843750000e+00
1.570670247077941895e+01,-3.318363428115844727e+00,-8.322244644165039062e+00,-5.094861030578613281e+00,-6.340026855468750000e+00,3.715515136718750000e+00,-9.841918945312500000e-01
1.572100400924682617e+01,-3.438073635101318359e+00,-8.322244644165039062e+00,-5.094861030578613281e+00,-5.897521972656250000e+00,6.179809570312500000e-01,-8.239746093750000000e-01
1.573302936553955078e+01,-3.438073635101318359e+00,-8.322244644165039062e+00,-4.999093055725097656e+00,-6.927490234375000000e+00,6.179809570312500000e-01,-1.831054687500000000e-01
1.574926495552062988e+01,-3.634398221969604936e+00,-8.236053466796875000e+00,-4.999093055725097656e+00,-6.431579589843750000e+00,6.179809570312500000e-01,-8.239746093750000000e-01
1.576122260093688965e+01,-3.749319791793823242e+00,-8.236053466796875000e+00,-4.999093055725097656e+00,-6.431579589843750000e+00,8.392333984375000000e-02,1.457214355468750000e+00
1.577756571769714355e+01,-3.804386377334594282e+00,-8.236053466796875000e+00,-4.845864295959472656e+00,-3.715515136718750000e+00,8.392333984375000000e-02,2.059936523437500000e-01
1.578800034523010254e+01,-3.811568975448607954e+00,-8.030152320861816406e+00,-4.845864295959472656e+00,-3.715515136718750000e+00,-1.853942871093750000e+00,2.059936523437500000e-01
1.580305314064025879e+01,-3.811568975448607954e+00,-8.504204750061035156e+00,-4.845864295959472656e+00,-4.249572753906250000e+00,-1.853942871093750000e+00,2.059936523437500000e-01
1.581663489341735840e+01,-2.918531894683837891e+00,-8.664615631103515625e+00,-5.121197223663330078e+00,-6.614685058593750000e+00,-2.815246582031250000e+00,2.243041992187500000e+00
1.582947492599487305e+01,-2.868253707885742188e+00,-8.664615631103515625e+00,-4.841075897216796875e+00,-6.172180175781250000e+00,-7.339477539062500000e+00,5.004882812500000000e+00
1.584522652626037598e+01,-2.918531894683837891e+00,-7.869740962982177734e+00,-4.857835292816162109e+00,-6.172180175781250000e+00,-7.339477539062500000e+00,8.659362792968750000e+00
1.585693645477294922e+01,-4.053383350372314453e+00,-7.869740962982177734e+00,-4.501099109649658203e+00,-6.149291992187500000e+00,-9.155273437500000000e-02,8.659362792968750000e+00
1.587205433845520020e+01,-4.053383350372314453e+00,-8.200140953063964844e+00,-4.501099109649658203e+00,-6.149291992187500000e+00,5.912780761718750000e+00,-9.986877441406250000e+00
1.588428092002868652e+01,-2.908955097198486328e+00,-8.200140953063964844e+00,-4.077325344085693359e+00,-9.346008300781250000e+00,8.644104003906250000e+00,-1.026153564453125000e+01
1.589802312850952148e+01,-2.908955097198486328e+00,-6.033388137817382812e+00,-2.597708702087402344e+00,-9.346008300781250000e+00,8.644104003906250000e+00,-2.752685546875000000e+01
1.591118240356445312e+01,-6.634332656860351562e+00,-5.987898349761962891e+00,-2.597708702087402344e+00,2.403259277343750000e+00,7.904052734375000000e+00,-2.752685546875000000e+01
1.592509007453918457e+01,-6.634332656860351562e+00,-6.033388137817382812e+00,-4.953603267669677734e+00,2.403259277343750000e+00,-4.379272460937500000e+00,-2.037048339843750000e+00
1.594196581840515137e+01,-4.493916511535644531e+00,-8.930372238159179688e+00,-6.347028732299804688e+00,-6.103515625000000000e+00,-1.026916503906250000e+01,4.455566406250000000e+00
1.595312452316284180e+01,-3.088520050048828125e+00,-8.930372238159179688e+00,-4.953603267669677734e+00,-6.103515625000000000e+00,-9.712219238281250000e+00,4.455566406250000000e+00
1.596664357185363770e+01,-3.088520050048828125e+00,-9.057265281677246094e+00,-6.090848922729492188e+00,-6.034851074218750000e+00,-9.712219238281250000e+00,3.211975097656250000e+00
1.597987675666809082e+01,-3.088520050048828125e+00,-8.437166213989257812e+00,-4.448426723480224609e+00,-4.348754882812500000e-01,-9.254455566406250000e+00,3.211975097656250000e+00
1.599434852600097656e+01,-4.050989151000976562e+00,-8.437166213989257812e+00,-4.448426723480224609e+00,-6.034851074218750000e+00,-9.254455566406250000e+00,4.951477050781250000e+00
1.600717973709106445e+01,-4.050989151000976562e+00,-8.437166213989257812e+00,-4.448426723480224609e+00,-8.026123046875000000e+00,-9.254455566406250000e+00,4.951477050781250000e+00
1.602242541313171387e+01,-3.861847162246704102e+00,-8.590395927429199219e+00,-4.948814868927001953e+00,-8.026123046875000000e+00,-7.835388183593750000e+00,4.669189453125000000e+00
1.603645634651184082e+01,-2.765302896499633789e+00,-8.590395927429199219e+00,-5.664680957794189453e+00,-1.138305664062500000e+01,-7.835388183593750000e+00,-7.171630859375000000e+00
1.604872441291809082e+01,-2.552218914031982422e+00,-8.817844390869140625e+00,-6.519411087036132812e+00,-5.584716796875000000e+00,-7.835388183593750000e+00,4.669189453125000000e+00
1.606479859352111816e+01,-2.765302896499633789e+00,-8.336609840393066406e+00,-6.519411087036132812e+00,-6.072998046875000000e+00,-1.571655273437500000e+00,1.070404052734375000e+01
1.607531142234802246e+01,-5.185840606689453125e+00,-7.951143741607666016e+00,-4.060565948486328125e+00,-6.072998046875000000e+00,-1.571655273437500000e+00,1.070404052734375000e+01
1.609011793136596680e+01,-5.185840606689453125e+00,-7.951143741607666016e+00,-4.060565948486328125e+00,-9.788513183593750000e+00,-1.831054687500000000e+00,1.907348632812500000e+00
1.610490489006042480e+01,-2.475604534149169922e+00,-8.401253700256347656e+00,-5.815515995025634766e+00,-9.788513183593750000e+00,-1.053619384765625000e+01,1.907348632812500000e+00
1.611826014518737793e+01,-2.475604534149169922e+00,-8.401253700256347656e+00,-5.815515995025634766e+00,-7.110595703125000000e+00,-1.415252685546875000e+01,9.902954101562500000e+00
1.613054537773132324e+01,-3.617638826370239258e+00,-7.999027729034423828e+00,-4.680664062500000000e+00,-7.110595703125000000e+00,-1.415252685546875000e+01,9.902954101562500000e+00
1.614720940589904785e+01,-3.617638826370239258e+00,-7.999027729034423828e+00,-4.680664062500000000e+00,-1.144409179687500000e+01,-6.179809570312500000e-01,3.646850585937500000e+00
1.615936756134033203e+01,-2.774879693984985352e+00,-8.204929351806640625e+00,-5.142745018005371094e+00,-1.328277587890625000e+01,-6.179809570312500000e-01,3.646850585937500000e+00
1.617146611213684082e+01,-2.710236310958862305e+00,-8.204929351806640625e+00,-5.142745018005371094e+00,-1.686859130859375000e+01,-6.179809570312500000e-01,3.646850585937500000e+00
1.618876242637634277e+01,-1.719036817550659180e+00,-7.041347026824951172e+00,-3.344699621200561079e+00,-1.686859130859375000e+01,3.424072265625000000e+01,-2.539062500000000000e+01
1.619938135147094727e+01,-4.477156996726989746e-01,-7.041347026824951172e+00,-3.344699621200561079e+00,-1.294708251953125000e+01,3.424072265625000000e+01,-2.539062500000000000e+01
1.621319413185119629e+01,-1.719036817550659180e+00,-8.595184326171875000e+00,-3.313575029373168945e+00,-1.068115234375000000e+01,4.531860351562500000e+00,6.996154785156250000e+00
1.622851634025573730e+01,-2.181117773056030273e+00,-8.635885238647460938e+00,-6.165069103240966797e+00,-1.294708251953125000e+01,-9.727478027343750000e+00,6.996154785156250000e+00
1.624053335189819336e+01,-3.272873640060424805e+00,-8.595184326171875000e+00,-6.165069103240966797e+00,-1.068115234375000000e+01,-1.367950439453125000e+01,6.996154785156250000e+00
1.625163054466247559e+01,-3.708618402481079102e+00,-8.329427719116210938e+00,-6.165069103240966797e+00,-1.483154296875000000e+01,-1.367950439453125000e+01,4.531860351562500000e+00
1.627030730247497559e+01,-3.708618402481079102e+00,-8.303091049194335938e+00,-4.970362663269042969e+00,-1.483154296875000000e+01,-9.811401367187500000e+00,7.270812988281250000e+00
1.628297686576843262e+01,-3.708618402481079102e+00,-8.159439086914062500e+00,-4.896142482757568359e+00,-1.483154296875000000e+01,2.212524414062500000e-01,7.141113281250000000e+00
1.629511713981628418e+01,-4.019864559173583984e+00,-8.142680168151855469e+00,-4.970362663269042969e+00,-1.795959472656250000e+01,2.212524414062500000e-01,7.141113281250000000e+00
1.631212043762207031e+01,-3.196259260177612305e+00,-8.159439086914062500e+00,-5.908889770507812500e+00,-8.354187011718750000e+00,2.212524414062500000e-01,7.141113281250000000e+00
1.632455205917358398e+01,-2.667140722274780273e+00,-8.384493827819824219e+00,-5.913678169250488281e+00,-1.795959472656250000e+01,-3.990173339843750000e+00,7.759094238281250000e+00
1.633621168136596680e+01,-2.667140722274780273e+00,-8.384493827819824219e+00,-5.913678169250488281e+00,-5.989074707031250000e+00,-3.990173339843750000e+00,7.759094238281250000e+00
1.635119199752807617e+01,-4.067748546600341797e+00,-8.652645111083984375e+00,-6.105214118957520419e+00,-1.721954345703125000e+01,-3.990173339843750000e+00,3.936767578125000000e+00
1.636468410491943359e+01,-4.067748546600341797e+00,-7.845798969268798828e+00,-6.105214118957520419e+00,-5.989074707031250000e+00,-4.570007324218750000e+00,3.936767578125000000e+00
1.637918066978454590e+01,-3.861847162246704102e+00,-8.013393402099609375e+00,-6.105214118957520419e+00,-6.172180175781250000e+00,-4.570007324218750000e+00,7.453918457031250000e+00
1.639060449600219727e+01,-3.643975019454956055e+00,-8.013393402099609375e+00,-6.208164691925048828e+00,-6.172180175781250000e+00,-1.215362548828125000e+01,1.658630371093750000e+01
1.641376423835754395e+01,-3.691859006881713867e+00,-8.013393402099609375e+00,-5.896918773651123047e+00,-1.199340820312500000e+01,-4.348754882812500000e-01,7.453918457031250000e+00
1.642468953132629395e+01,-3.691859006881713867e+00,-8.152256965637207031e+00,-5.736507415771484375e+00,-1.199340820312500000e+01,1.057434082031250000e+01,-4.631042480468750000e+00
1.643612432479858398e+01,-3.691859006881713867e+00,-8.695740699768066406e+00,-5.736507415771484375e+00,-1.296997070312500000e+01,1.057434082031250000e+01,-4.631042480468750000e+00
1.644719433784484863e+01,-4.218583106994628906e+00,-8.695740699768066406e+00,-5.736507415771484375e+00,-1.009368896484375000e+01,-3.868103027343750000e+00,1.255798339843750000e+01
1.646051406860351562e+01,-3.402160644531250000e+00,-8.348581314086914062e+00,-4.994304656982421875e+00,-1.009368896484375000e+01,-3.868103027343750000e+00,1.255798339843750000e+01
1.647533392906188965e+01,-3.620033025741577148e+00,-7.304709434509277344e+00,-4.912901878356933594e+00,-8.331298828125000000e+00,-3.021240234375000000e+00,1.052093505859375000e+01
1.648683166503906250e+01,-3.402160644531250000e+00,-6.339846134185791016e+00,-3.337517023086547852e+00,-6.530761718750000000e+00,3.471374511718750000e+00,6.790161132812500000e-01
1.650127935409545898e+01,-1.778891801834106445e+00,-6.339846134185791016e+00,-3.337517023086547852e+00,-8.331298828125000000e+00,-3.021240234375000000e+00,1.052093505859375000e+01
1.651335549354553223e+01,-1.778891801834106445e+00,-1.379778385162353516e+01,-1.491108798980712713e+01,-4.912567138671875000e+01,3.743743896484375000e+01,2.313232421875000000e+01
1.652836847305297852e+01,-8.678980827331542969e+00,-1.379778385162353516e+01,-1.491108798980712713e+01,-1.192703247070312358e+02,1.288604736328125000e+01,5.544281005859375000e+01
1.654358267784118652e+01,-8.860939979553222656e+00,-6.804321289062500000e+00,-5.758055210113525391e+00,-1.192703247070312358e+02,1.288604736328125000e+01,5.889892578125000000e+01
1.655536580085754395e+01,-8.678980827331542969e+00,-3.083731651306152344e+00,-9.768342971801757812e-01,-6.561279296875000000e+01,1.288604736328125000e+01,5.889892578125000000e+01
1.657011294364929199e+01,-7.898471355438232422e+00,-3.083731651306152344e+00,-9.768342971801757812e-01,-6.257629394531250000e+01,7.363891601562500000e+01,-3.143310546875000000e+00
1.658196091651916504e+01,-2.003946781158447710e+00,-1.197100803256029994e-02,3.775655984878540039e+00,-4.050445556640625000e+01,7.363891601562500000e+01,-3.143310546875000000e+00
1.659860968589782715e+01,1.977610588073730469e+00,-6.205770492553710938e+00,7.565677165985107422e-01,-4.050445556640625000e+01,1.567993164062500000e+02,-3.143310546875000000e+00
1.661342787742614746e+01,1.977610588073730469e+00,-6.205770492553710938e+00,7.565677165985107422e-01,-3.559112548828125000e+01,9.627532958984376421e+01,-2.979278564453125000e+01
1.662415933609008789e+01,-1.666364312171936035e+00,-8.856151580810546875e+00,-6.421248912811279297e+00,-3.559112548828125000e+01,9.627532958984376421e+01,-2.979278564453125000e+01
1.663966584205627441e+01,-2.537853717803955078e+00,-8.856151580810546875e+00,-6.421248912811279297e+00,-5.981445312500000000e+00,-1.914978027343750000e+00,7.324218750000000000e+00
1.665198826789855957e+01,-4.161122322082520419e+00,-7.826645374298095703e+00,-6.421248912811279297e+00,-5.981445312500000000e+00,-1.914978027343750000e+00,7.324218750000000000e+00
1.666750884056091309e+01,-4.161122322082520419e+00,-7.213729381561279297e+00,-5.856217384338378906e+00,-5.981445312500000000e+00,1.052856445312500000e+00,1.261138916015625000e+01
1.667932105064392090e+01,-5.753266811370849609e+00,-7.544129371643066406e+00,-7.046135425567626953e+00,-6.675720214843750000e+00,1.052856445312500000e+00,-8.590698242187500000e+00
1.669418692588806152e+01,-3.873818397521972656e+00,-7.036558628082275391e+00,-6.708552837371826172e+00,-3.273010253906250000e+00,1.052856445312500000e+00,2.243041992187500000e+00
1.670509028434753418e+01,-4.199429512023925781e+00,-7.247248649597167969e+00,-6.708552837371826172e+00,-1.065063476562500000e+01,4.524230957031250000e+00,-4.295349121093750000e+00
1.672049713134765625e+01,-4.199429512023925781e+00,-7.247248649597167969e+00,-6.708552837371826172e+00,-1.365661621093750000e+00,4.524230957031250000e+00,2.243041992187500000e+00
1.673831105232238770e+01,-4.199429512023925781e+00,-7.247248649597167969e+00,-6.299144744873046875e+00,-1.365661621093750000e+00,-6.729125976562500000e+00,1.352691650390625000e+01
1.674907255172729492e+01,-4.771644115447998047e+00,-7.165845394134521484e+00,-6.299144744873046875e+00,-3.356933593750000000e-01,-6.729125976562500000e+00,1.352691650390625000e+01
1.676330733299255371e+01,-4.771644115447998047e+00,-7.120355606079101562e+00,-5.442020416259765625e+00,-3.356933593750000000e-01,5.165100097656250000e+00,-6.332397460937500000e+00
1.677736759185791016e+01,-4.508281707763671875e+00,-7.120355606079101562e+00,-5.442020416259765625e+00,-6.744384765625000000e+00,5.165100097656250000e+00,-6.332397460937500000e+00
1.678904867172241211e+01,-4.424484729766845703e+00,-7.558494567871093750e+00,-6.098031520843505859e+00,-6.744384765625000000e+00,3.845214843750000000e+00,-4.241943359375000000e+00
1.680472493171691895e+01,-4.050989151000976562e+00,-7.582436561584472656e+00,-6.153098106384277344e+00,-5.897521972656250000e+00,-2.632141113281250000e+00,-2.746582031250000000e+00
1.681950354576110840e+01,-4.050989151000976562e+00,-7.558494567871093750e+00,-6.442796707153320312e+00,-3.974914550781250000e+00,-2.632141113281250000e+00,3.692626953125000000e+00
1.683212351799011230e+01,-4.050989151000976562e+00,-7.184998989105224609e+00,-6.442796707153320312e+00,-2.899169921875000000e+00,-2.632141113281250000e+00,3.692626953125000000e+00
1.684454107284545898e+01,-4.015076160430908203e+00,-7.089231014251708984e+00,-5.298368453979492188e+00,-2.899169921875000000e+00,5.279541015625000000e+00,-2.204895019531250000e+00
1.686058878898620605e+01,-3.960009574890136719e+00,-7.089231014251708984e+00,-5.298368453979492188e+00,-3.349304199218750000e+00,5.279541015625000000e+00,-2.204895019531250000e+00
1.687105798721313477e+01,-3.883395195007324219e+00,-7.807491779327392578e+00,-5.482721805572509766e+00,-4.806518554687500000e+00,-2.815246582031250000e+00,4.867553710937500000e+00
1.688466143608093262e+01,-3.883395195007324219e+00,-7.807491779327392578e+00,-5.485116004943847656e+00,-3.349304199218750000e+00,-3.654479980468750000e+00,6.195068359375000000e+00
1.689988279342651367e+01,-4.455609321594238281e+00,-7.290344238281250000e+00,-5.482721805572509766e+00,-2.784729003906250000e+00,-3.654479980468750000e+00,6.195068359375000000e+00
1.691291904449462891e+01,-4.570530891418457031e+00,-7.031770229339599609e+00,-6.007051944732666016e+00,-2.784729003906250000e+00,1.472473144531250000e+00,-1.007080078125000000e+00
1.692797255516052246e+01,-4.455609321594238281e+00,-7.031770229339599609e+00,-6.007051944732666016e+00,-2.784729003906250000e+00,5.073547363281250000e+00,-1.024627685546875000e+01
1.694242572784423828e+01,-3.428496837615966797e+00,-7.110778808593750000e+00,-6.007051944732666016e+00,-5.661010742187500000e+00,5.073547363281250000e+00,-1.024627685546875000e+01
1.695457053184509277e+01,-3.428496837615966797e+00,-7.534552574157714844e+00,-6.926425457000732422e+00,-5.661010742187500000e+00,3.303527832031250000e+00,8.621215820312500000e-01
1.696668481826782227e+01,-4.173093318939208984e+00,-7.534552574157714844e+00,-5.959167957305908203e+00,-5.661010742187500000e+00,-1.193237304687500000e+01,1.599121093750000000e+01
1.698283839225769043e+01,-4.996698856353759766e+00,-6.921637058258056641e+00,-5.762843608856201172e+00,-6.278991699218750000e+00,-1.193237304687500000e+01,1.599121093750000000e+01
1.699314260482788086e+01,-5.003881454467773438e+00,-6.921637058258056641e+00,-5.521028995513916016e+00,-4.539489746093750000e+00,-1.365661621093750000e+00,5.645751953125000000e-01
1.700817108154296875e+01,-4.996698856353759766e+00,-7.015010833740234375e+00,-5.521028995513916016e+00,-6.278991699218750000e+00,9.063720703125000000e+00,-1.071166992187500000e+01
1.702435970306396484e+01,-3.749319791793823242e+00,-7.417236804962158203e+00,-5.719747543334960938e+00,-6.156921386718750000e+00,9.063720703125000000e+00,-1.071166992187500000e+01
1.703620362281799316e+01,-3.694253206253052202e+00,-7.745242595672607422e+00,-6.473921298980712891e+00,-6.156921386718750000e+00,1.968383789062500000e+00,-2.960205078125000000e+00
1.705083441734313965e+01,-3.694253206253052202e+00,-7.745242595672607422e+00,-6.473921298980712891e+00,-1.434326171875000000e+00,-5.538940429687500000e+00,9.841918945312500000e+00
1.706304407119750977e+01,-4.541800498962402344e+00,-7.132326602935791016e+00,-5.920860767364501953e+00,-1.434326171875000000e+00,-5.538940429687500000e+00,9.841918945312500000e+00
1.707763433456420898e+01,-4.714182853698730469e+00,-7.132326602935791016e+00,-5.442020416259765625e+00,-4.173278808593750000e+00,-1.754760742187500000e+00,5.432128906250000000e+00
1.709263801574707031e+01,-4.714182853698730469e+00,-7.493851184844970703e+00,-5.442020416259765625e+00,-4.173278808593750000e+00,6.988525390625000000e+00,-7.186889648437500000e+00
1.710484838485717773e+01,-3.914519786834716797e+00,-7.524975776672363281e+00,-5.762843608856201172e+00,-4.837036132812500000e+00,6.988525390625000000e+00,-7.186889648437500000e+00
1.711930155754089355e+01,-3.751713991165161133e+00,-7.524975776672363281e+00,-5.999869346618652344e+00,-4.142761230468750000e+00,1.365661621093750000e+00,-2.632141113281250000e+00
1.713171958923339844e+01,-3.751713991165161133e+00,-7.225700378417968750e+00,-5.762843608856201172e+00,-4.142761230468750000e+00,1.304626464843750000e+00,3.890991210937500000e+00
1.714741992950439453e+01,-4.259284973144531250e+00,-7.187393188476562500e+00,-6.167463302612304688e+00,-4.142761230468750000e+00,-6.912231445312500000e+00,3.890991210937500000e+00
1.715803980827331543e+01,-4.299986362457275391e+00,-7.187393188476562500e+00,-6.014234542846679688e+00,-1.571655273437500000e+00,1.304626464843750000e+00,1.937866210937500000e+00
1.717415928840637207e+01,-4.299986362457275391e+00,-7.307103633880615234e+00,-6.167463302612304688e+00,-6.492614746093750000e+00,1.197814941406250000e+00,-4.646301269531250000e+00
1.718574237823486328e+01,-4.489128112792968750e+00,-7.395689010620117188e+00,-6.212953090667724609e+00,-6.332397460937500000e-01,1.197814941406250000e+00,-4.646301269531250000e+00
1.720017337799072266e+01,-4.299986362457275391e+00,-7.450755596160888672e+00,-6.754043102264404297e+00,-2.677917480468750000e+00,-1.884460449218750000e+00,4.898071289062500000e+00
1.721564054489135742e+01,-4.489128112792968750e+00,-7.450755596160888672e+00,-6.754043102264404297e+00,-2.677917480468750000e+00,-1.884460449218750000e+00,5.027770996093750000e+00
1.722760343551635742e+01,-4.572925090789794922e+00,-7.046135425567626953e+00,-5.724535942077636719e+00,-3.372192382812500000e+00,5.950927734375000000e-01,5.027770996093750000e+00
1.724379467964172363e+01,-4.572925090789794922e+00,-7.046135425567626953e+00,-5.463568210601806641e+00,-4.615783691406250000e+00,6.401062011718750000e+00,-6.507873535156250000e+00
1.725467538833618164e+01,-3.979163169860839844e+00,-7.395689010620117188e+00,-5.463568210601806641e+00,-5.950927734375000000e+00,6.401062011718750000e+00,-6.507873535156250000e+00
1.726873970031738281e+01,-3.787626981735229492e+00,-7.395689010620117188e+00,-6.177040100097656250e+00,-5.950927734375000000e+00,-1.182556152343750000e+00,-2.151489257812500000e+00
1.728266787528991699e+01,-3.787626981735229492e+00,-7.371747016906738281e+00,-6.177040100097656250e+00,-4.287719726562500000e+00,-6.141662597656250000e+00,6.538391113281250000e+00
1.729678893089294434e+01,-4.726153850555419922e+00,-7.371747016906738281e+00,-6.057330131530761719e+00,-9.689331054687500000e-01,-6.591796875000000000e+00,6.538391113281250000e+00
1.731212592124938965e+01,-4.726153850555419922e+00,-7.448361396789550781e+00,-5.947196960449218750e+00,-4.287719726562500000e+00,-6.591796875000000000e+00,4.852294921875000000e+00
1.732456088066101074e+01,-4.491522312164306641e+00,-7.709329128265380859e+00,-6.057330131530761719e+00,-4.043579101562500000e+00,3.585815429687500000e+00,-1.525878906250000000e+00
1.733878540992736816e+01,-4.129997730255126953e+00,-7.709329128265380859e+00,-5.947196960449218750e+00,-4.043579101562500000e+00,3.585815429687500000e+00,-1.525878906250000000e+00
1.735064411163330078e+01,-3.916913986206055132e+00,-7.340622425079345703e+00,-5.255272865295410156e+00,-4.043579101562500000e+00,3.395080566406250000e+00,3.913879394531250000e+00
1.736761093139648438e+01,-4.129997730255126953e+00,-7.180210590362548828e+00,-5.255272865295410156e+00,-5.264282226562500000e+00,2.975463867187500000e+00,3.913879394531250000e+00
1.737815570831298828e+01,-3.663128614425659180e+00,-7.180210590362548828e+00,-5.944802761077880859e+00,-9.666442871093750000e+00,2.975463867187500000e+00,1.144409179687500000e+00
1.739276623725891113e+01,-4.161122322082520419e+00,-7.350199222564697266e+00,-6.121973514556884766e+00,-5.264282226562500000e+00,2.975463867187500000e+00,-1.129150390625000000e+00
1.741010832786560059e+01,-4.161122322082520419e+00,-7.350199222564697266e+00,-6.184222698211669922e+00,-1.586914062500000000e+00,1.686096191406250000e+00,-1.129150390625000000e+00
1.742072272300720215e+01,-4.161122322082520419e+00,-7.333439826965332031e+00,-6.184222698211669922e+00,-1.586914062500000000e+00,-3.814697265625000000e-01,1.174926757812500000e+00
1.743515133857727051e+01,-4.168304920196533203e+00,-7.149085998535156250e+00,-6.184222698211669922e+00,-2.655029296875000000e+00,-3.730773925781250000e+00,2.578735351562500000e+00
1.744892573356628418e+01,-4.359841346740722656e+00,-7.333439826965332031e+00,-5.786785602569580078e+00,-4.302978515625000000e+00,-3.814697265625000000e-01,1.174926757812500000e+00
1.746195077896118164e+01,-4.359841346740722656e+00,-7.230488777160643643e+00,-6.469132900238037109e+00,-3.410339355468750000e+00,-1.434326171875000000e+00,1.739501953125000000e+00
1.747674536705017090e+01,-4.359841346740722656e+00,-7.230488777160643643e+00,-5.786785602569580078e+00,-3.410339355468750000e+00,3.059387207031250000e+00,-1.289367675781250000e+00
1.749069333076477051e+01,-4.290409564971923828e+00,-7.041347026824951172e+00,-5.597643375396728516e+00,-3.410339355468750000e+00,-1.075744628906250000e+00,-2.029418945312500000e+00
1.750421094894409180e+01,-4.139574527740479404e+00,-7.041347026824951172e+00,-5.597643375396728516e+00,6.103515625000000000e-01,6.584167480468750000e+00,-2.357482910156250000e+00
1.751616191864013672e+01,-3.995922565460205078e+00,-7.201758384704589844e+00,-5.674257755279541016e+00,-8.529663085937500000e+00,-1.075744628906250000e+00,-2.357482910156250000e+00
1.753284001350402832e+01,-4.139574527740479404e+00,-7.513004779815673828e+00,-5.810727596282958984e+00,-1.014709472656250000e+00,-2.449035644531250000e+00,-2.822875976562500000e-01
1.754386568069458008e+01,-4.496310710906982422e+00,-7.513004779815673828e+00,-6.186616897583007812e+00,-1.014709472656250000e+00,-3.639221191406250000e+00,6.790161132812500000e+00
1.755818963050842285e+01,-4.532223701477050781e+00,-7.486668586730957031e+00,-6.186616897583007812e+00,-1.014709472656250000e+00,-3.639221191406250000e+00,6.790161132812500000e+00
1.757489275932312012e+01,-4.532223701477050781e+00,-7.129932403564453125e+00,-5.456385612487792969e+00,-2.120971679687500000e+00,2.151489257812500000e+00,-2.174377441406250000e+00
1.758608412742614746e+01,-4.089296340942382812e+00,-7.129932403564453125e+00,-5.425261020660400391e+00,-6.690979003906250000e+00,5.523681640625000000e+00,-2.441406250000000000e+00
1.759912037849426270e+01,-3.612850189208983931e+00,-7.218517780303955078e+00,-5.456385612487792969e+00,-6.958007812500000000e+00,2.151489257812500000e+00,-2.441406250000000000e+00
1.761453199386596680e+01,-3.612850189208983931e+00,-7.522581577301025391e+00,-5.746084213256835938e+00,-6.690979003906250000e+00,-3.379821777343750000e+00,9.765625000000000000e-01
1.762654066085815430e+01,-4.266467571258544922e+00,-7.522581577301025391e+00,-5.746084213256835938e+00,-1.441955566406250000e+00,-3.417968750000000000e+00,7.011413574218750000e+00
1.763833570480346680e+01,-4.311957359313964844e+00,-6.998251438140869141e+00,-5.683834552764892578e+00,-1.441955566406250000e+00,-3.417968750000000000e+00,7.011413574218750000e+00
1.765315985679626465e+01,-4.522646903991699219e+00,-6.998251438140869141e+00,-5.683834552764892578e+00,-1.701354980468750000e+00,-1.686096191406250000e+00,-3.356933593750000000e-01
1.766794967651367188e+01,-4.522646903991699219e+00,-7.144297599792480469e+00,-5.561730384826660156e+00,-5.882263183593750000e+00,3.105163574218750000e+00,-3.807067871093750000e+00
1.768183898925781250e+01,-3.981557369232177734e+00,-7.491456985473632812e+00,-6.177040100097656250e+00,-5.882263183593750000e+00,3.105163574218750000e+00,-3.807067871093750000e+00
1.769623970985412598e+01,-3.981557369232177734e+00,-7.491456985473632812e+00,-6.378153324127197266e+00,-5.882263183593750000e+00,-7.797241210937500000e+00,6.622314453125000000e+00
1.770849013328552246e+01,-4.565742492675781250e+00,-7.141903400421142578e+00,-6.378153324127197266e+00,-5.561828613281250000e+00,-7.797241210937500000e+00,6.622314453125000000e+00
1.772187972068786621e+01,-4.771644115447998047e+00,-7.067683219909667969e+00,-5.791574001312255859e+00,-4.623413085937500000e+00,-3.799438476562500000e+00,3.562927246093750000e+00
1.773514723777770996e+01,-4.771644115447998047e+00,-7.141903400421142578e+00,-5.791574001312255859e+00,-5.561828613281250000e+00,3.936767578125000000e+00,-4.707336425781250000e+00
1.775066733360290527e+01,-4.084507942199707031e+00,-7.323863029479980469e+00,-5.911283969879150391e+00,-4.623413085937500000e+00,7.904052734375000000e+00,-4.707336425781250000e+00
1.776230072975158691e+01,-3.768473386764526367e+00,-7.836222171783447266e+00,-5.995080947875976562e+00,-4.486083984375000000e+00,7.904052734375000000e+00,-4.638671875000000000e+00
1.777684307098388672e+01,-3.768473386764526367e+00,-7.836222171783447266e+00,-6.023811340332031250e+00,-2.273559570312500000e+00,-9.277343750000000000e+00,1.028442382812500000e+01
1.778843903541564941e+01,-4.695029258728027344e+00,-7.714117527008056641e+00,-6.023811340332031250e+00,-2.273559570312500000e+00,-9.277343750000000000e+00,1.028442382812500000e+01
1.780362105369567871e+01,-4.714182853698730469e+00,-7.376535415649414062e+00,-5.777208805084228516e+00,-3.234863281250000000e+00,-1.922607421875000000e+00,2.670288085937500000e+00
1.781905889511108398e+01,-4.714182853698730469e+00,-7.240066051483154297e+00,-5.667075157165527344e+00,-3.517150878906250000e+00,6.393432617187500000e+00,-8.087158203125000000e+00
1.783142280578613281e+01,-3.971980571746826172e+00,-7.316680431365966797e+00,-5.777208805084228516e+00,-6.217956542968750000e+00,6.393432617187500000e+00,-8.087158203125000000e+00
1.784596872329711914e+01,-3.172317266464233398e+00,-7.249642848968505859e+00,-5.985504150390625000e+00,-3.517150878906250000e+00,4.577636718750000000e+00,-5.126953125000000000e+00
1.785703945159912109e+01,-3.172317266464233398e+00,-7.316680431365966797e+00,-6.105214118957520419e+00,-4.829406738281250000e+00,-4.508972167968750000e+00,7.392883300781250000e+00
1.787305426597595215e+01,-3.766079187393188921e+00,-7.366958618164062500e+00,-6.105214118957520419e+00,-3.509521484375000000e+00,-6.950378417968750000e+00,1.024627685546875000e+01
1.788538432121276855e+01,-4.781220912933349609e+00,-7.366958618164062500e+00,-5.899312973022460938e+00,-1.312255859375000000e+00,-6.950378417968750000e+00,1.024627685546875000e+01
1.789988279342651367e+01,-4.781220912933349609e+00,-7.297526836395263672e+00,-5.700593948364257812e+00,-1.312255859375000000e+00,-3.662109375000000000e+00,2.861022949218750000e+00
1.791540122032165527e+01,-4.718971252441406250e+00,-7.297526836395263672e+00,-5.700593948364257812e+00,-5.210876464843750000e+00,4.844665527343750000e+00,-5.500793457031250000e+00
1.792693996429443359e+01,-4.376600742340087891e+00,-7.414842605590820312e+00,-5.987898349761962891e+00,-5.210876464843750000e+00,4.898071289062500000e+00,-5.500793457031250000e+00
1.794204187393188477e+01,-3.751713991165161133e+00,-7.414842605590820312e+00,-6.040570735931396484e+00,-3.623962402343750000e+00,4.898071289062500000e+00,-4.478454589843750000e+00
1.795406770706176758e+01,-3.751713991165161133e+00,-7.381323814392089844e+00,-6.040570735931396484e+00,-2.983093261718750000e+00,-3.906250000000000000e+00,4.928588867187500000e+00
1.796849346160888672e+01,-4.606443881988525391e+00,-7.335834026336669922e+00,-5.882553577423095703e+00,-3.181457519531250000e+00,-4.394531250000000000e+00,4.928588867187500000e+00
1.798006725311279297e+01,-4.623203277587890625e+00,-7.335834026336669922e+00,-5.882553577423095703e+00,-2.883911132812500000e+00,-4.394531250000000000e+00,3.204345703125000000e+00
1.799769735336303711e+01,-4.623203277587890625e+00,-7.338228225708007812e+00,-5.973533153533936435e+00,-3.181457519531250000e+00,1.968383789062500000e+00,-2.700805664062500000e+00
1.801233530044555664e+01,-4.364629745483398438e+00,-7.520187377929686612e+00,-5.973533153533936435e+00,-4.325866699218750000e+00,1.968383789062500000e+00,-2.700805664062500000e+00
1.802277731895446777e+01,-4.058171749114990234e+00,-7.520187377929686612e+00,-5.978321552276611328e+00,-4.325866699218750000e+00,1.747131347656250000e+00,-1.564025878906250000e+00
1.803994941711425781e+01,-4.058171749114990234e+00,-7.453149795532226562e+00,-5.956773757934570312e+00,-3.715515136718750000e+00,-1.800537109375000000e+00,2.426147460937500000e+00
1.805067181587219238e+01,-4.228159904479980469e+00,-7.369352817535400391e+00,-5.827486991882324219e+00,-3.700256347656250000e+00,-1.914978027343750000e+00,2.426147460937500000e+00
