# elapsed time, f3_acc_x, f3_acc_y, f3_acc_z, f3_gyro_x, f3_gyro_y, f3_gyro_z
6.697672605514526367e+00,-1.568202137947082297e+00,-9.703699111938476562e+00,1.180341362953186035e+00,-3.440856933593750000e+00,-2.899169921875000000e-01,9.765625000000000000e-01
6.712350845336914062e+00,-1.575384736061096191e+00,-9.703699111938476562e+00,1.182735562324523926e+00,-3.585815429687500000e+00,-2.899169921875000000e-01,4.882812500000000000e-01
6.728299617767333984e+00,-1.575384736061096191e+00,-9.698910713195800781e+00,1.182735562324523926e+00,-3.585815429687500000e+00,-2.136230468750000000e-01,4.882812500000000000e-01
6.738772869110107422e+00,-1.527500629425048828e+00,-9.677363395690917969e+00,1.237802267074584961e+00,-3.585815429687500000e+00,7.629394531250000000e-03,4.882812500000000000e-01
6.754379749298095703e+00,-1.522712230682373047e+00,-9.698910713195800781e+00,1.249773263931274414e+00,-3.570556640625000000e+00,-2.136230468750000000e-01,8.163452148437500000e-01
6.766664505004882812e+00,-1.527500629425048828e+00,-9.677363395690917969e+00,1.237802267074584961e+00,-3.517150878906250000e+00,-2.288818359375000000e-01,6.637573242187500000e-01
6.781085014343261719e+00,-1.520318031311035156e+00,-9.605537414550779474e+00,1.242590665817260742e+00,-3.517150878906250000e+00,-2.288818359375000000e-01,6.866455078125000000e-01
6.796919345855712891e+00,-1.572990536689758301e+00,-9.605537414550779474e+00,1.242590665817260742e+00,-3.517150878906250000e+00,-2.517700195312500000e-01,6.866455078125000000e-01
6.810112476348876953e+00,-1.546654224395751953e+00,-9.610325813293455255e+00,1.242590665817260742e+00,-3.311157226562500000e+00,-2.288818359375000000e-01,6.866455078125000000e-01
6.822816133499145508e+00,-1.546654224395751953e+00,-9.679757118225097656e+00,1.242590665817260742e+00,-3.311157226562500000e+00,-1.525878906250000000e-02,5.569458007812500000e-01
6.835173368453979492e+00,-1.546654224395751953e+00,-9.679757118225097656e+00,1.300051450729369895e+00,-3.868103027343750000e+00,-1.525878906250000000e-02,5.569458007812500000e-01
6.852982759475708008e+00,-1.553836822509765625e+00,-9.677363395690917969e+00,1.307234048843383789e+00,-3.868103027343750000e+00,-6.103515625000000000e-02,5.569458007812500000e-01
6.863768100738525391e+00,-1.575384736061096191e+00,-9.655815124511720526e+00,1.300051450729369895e+00,-3.768920898437500000e+00,-1.373291015625000000e-01,6.408691406250000000e-01
6.877044200897216797e+00,-1.616086125373840332e+00,-9.677363395690917969e+00,1.288080453872680886e+00,-3.639221191406250000e+00,-1.373291015625000000e-01,6.027221679687500000e-01
6.891734361648559570e+00,-1.618480324745178223e+00,-9.655815124511720526e+00,1.288080453872680886e+00,-3.768920898437500000e+00,3.585815429687500000e-01,6.027221679687500000e-01
6.904692411422729492e+00,-1.616086125373840332e+00,-9.643844604492187500e+00,1.288080453872680886e+00,-3.532409667968750000e+00,3.585815429687500000e-01,5.722045898437500000e-01
6.918610572814941406e+00,-1.618480324745178223e+00,-9.643844604492187500e+00,1.314416766166687012e+00,-3.700256347656250000e+00,1.907348632812500000e-01,5.264282226562500000e-01
6.933544635772705078e+00,-1.616086125373840332e+00,-9.605537414550779474e+00,1.314416766166687012e+00,-3.692626953125000000e+00,1.907348632812500000e-01,5.264282226562500000e-01
6.946341037750244141e+00,-1.616086125373840332e+00,-9.737217903137208808e+00,1.314416766166687012e+00,-3.692626953125000000e+00,9.155273437500000000e-02,5.264282226562500000e-01
6.958371162414550781e+00,-1.522712230682373047e+00,-9.639056205749511719e+00,1.309628367424011230e+00,-3.662109375000000000e+00,0.000000000000000000e+00,7.019042968750000000e-01
6.975875616073608398e+00,-1.472434043884277122e+00,-9.639056205749511719e+00,1.307234048843383789e+00,-3.570556640625000000e+00,-2.059936523437500000e-01,7.019042968750000000e-01
6.986028909683227539e+00,-1.472434043884277122e+00,-9.607931137084959161e+00,1.264138460159301758e+00,-3.570556640625000000e+00,-2.059936523437500000e-01,5.874633789062500000e-01
7.000035047531127930e+00,-1.563413739204406738e+00,-9.588777542114257812e+00,1.264138460159301758e+00,-3.608703613281250000e+00,-1.831054687500000000e-01,5.874633789062500000e-01
7.014584541320800781e+00,-1.563413739204406738e+00,-9.607931137084959161e+00,1.264138460159301758e+00,-3.608703613281250000e+00,-1.831054687500000000e-01,7.858276367187500000e-01
7.027948856353759766e+00,-1.570596337318420410e+00,-9.622296333312988281e+00,1.283292055130004883e+00,-3.990173339843750000e+00,-3.128051757812500000e-01,8.850097656250000000e-01
7.042142152786254883e+00,-1.594538331031799094e+00,-9.655815124511720526e+00,1.276109457015991211e+00,-3.791809082031250000e+00,-3.128051757812500000e-01,8.850097656250000000e-01
7.057802200317382812e+00,-1.623268723487854004e+00,-9.686940193176269531e+00,1.276109457015991211e+00,-3.990173339843750000e+00,-5.340576171875000000e-01,1.068115234375000000e+00
7.069296360015869141e+00,-1.594538331031799094e+00,-9.686940193176269531e+00,1.276109457015991211e+00,-3.791809082031250000e+00,2.059936523437500000e-01,3.204345703125000000e-01
7.081203460693359375e+00,-1.611297726631164551e+00,-9.631873130798339844e+00,1.266532659530639648e+00,-3.967285156250000000e+00,-2.136230468750000000e-01,5.187988281250000000e-01
7.096421480178833008e+00,-1.510741233825683594e+00,-9.564835548400880683e+00,1.266532659530639648e+00,-3.967285156250000000e+00,-2.136230468750000000e-01,5.187988281250000000e-01
7.107800483703613281e+00,-1.611297726631164551e+00,-9.504981040954589844e+00,1.240196466445922852e+00,-4.722595214843750000e+00,-5.874633789062500000e-01,5.187988281250000000e-01
7.123090028762817383e+00,-1.496376037597656250e+00,-9.459490776062011719e+00,1.237802267074584961e+00,-4.722595214843750000e+00,-5.874633789062500000e-01,-1.525878906250000000e-02
7.136207342147827148e+00,-1.410184741020202637e+00,-9.411606788635253906e+00,1.240196466445922852e+00,-5.554199218750000000e+00,-5.874633789062500000e-01,-3.356933593750000000e-01
7.150830745697021484e+00,-1.379060149192810059e+00,-9.404423713684082031e+00,1.307234048843383789e+00,-2.746582031250000000e+00,1.205444335937500000e+00,-3.356933593750000000e-01
7.165111064910888672e+00,-1.410184741020202637e+00,-9.404423713684082031e+00,1.357512354850769043e+00,-5.393981933593750000e+00,-1.365661621093750000e+00,3.967285156250000000e-01
7.176954030990600586e+00,-1.316810965538024902e+00,-9.619902610778808594e+00,1.357512354850769043e+00,-4.455566406250000000e+00,1.205444335937500000e+00,3.967285156250000000e-01
7.193266630172729492e+00,-1.793256998062133789e+00,-9.619902610778808594e+00,1.343147158622741699e+00,-4.455566406250000000e+00,2.662658691406250000e+00,-1.091003417968750000e+00
7.204830408096313477e+00,-1.391031146049499512e+00,-9.586383819580078125e+00,1.249773263931274414e+00,-3.387451171875000000e+00,2.662658691406250000e+00,-1.342773437500000000e+00
7.219086647033691406e+00,-1.532289028167724609e+00,-9.471461296081544745e+00,1.249773263931274414e+00,-3.349304199218750000e+00,2.197265625000000000e+00,-1.091003417968750000e+00
7.231555938720703125e+00,-1.527500629425048828e+00,-9.471461296081544745e+00,1.266532659530639648e+00,-3.387451171875000000e+00,1.892089843750000000e+00,-5.187988281250000000e-01
7.246421813964843750e+00,-1.532289028167724609e+00,-9.471461296081544745e+00,1.266532659530639648e+00,-5.767822265625000000e+00,4.501342773437500000e-01,-3.204345703125000000e-01
7.258536338806152344e+00,-1.539471626281738503e+00,-9.617507934570312500e+00,1.003170490264892578e+00,-5.767822265625000000e+00,-1.197814941406250000e+00,8.392333984375000000e-01
7.273716211318969727e+00,-1.673546910285949707e+00,-9.617507934570312500e+00,1.003170490264892578e+00,-3.334045410156250000e+00,4.501342773437500000e-01,-2.288818359375000000e-01
7.288262605667114258e+00,-1.673546910285949707e+00,-9.674968719482421875e+00,1.273715257644653098e+00,-3.334045410156250000e+00,2.067565917968750000e+00,-2.288818359375000000e-01
7.299965381622314453e+00,-1.762132406234741211e+00,-9.667786598205566406e+00,1.273715257644653098e+00,-6.217956542968750000e+00,2.067565917968750000e+00,-4.348754882812500000e-01
7.315855026245117188e+00,-1.556231021881103516e+00,-9.674968719482421875e+00,1.261744260787964089e+00,-6.217956542968750000e+00,6.713867187500000000e-01,-7.324218750000000000e-01
7.326408863067626953e+00,-1.611297726631164551e+00,-9.667786598205566406e+00,9.289502501487731934e-01,-4.669189453125000000e+00,-2.288818359375000000e-02,-7.324218750000000000e-01
7.342984676361083984e+00,-1.364694952964782715e+00,-9.445125579833984375e+00,9.289502501487731934e-01,-3.486633300781250000e+00,6.713867187500000000e-01,-1.411437988281250000e+00
7.354891538619995117e+00,-1.364694952964782715e+00,-9.236829757690429688e+00,1.247379064559936301e+00,-3.486633300781250000e+00,2.250671386718750000e+00,-1.838684082031250000e+00
7.368513822555541992e+00,-1.362300753593444824e+00,-9.236829757690429688e+00,1.247379064559936301e+00,-4.295349121093750000e+00,2.342224121093750000e+00,-1.838684082031250000e+00
7.385194540023803711e+00,-1.362300753593444824e+00,-9.485827445983888495e+00,1.209071874618530495e+00,-5.592346191406250000e+00,2.250671386718750000e+00,-8.697509765625000000e-01
7.398988723754882812e+00,-1.606509327888488770e+00,-9.545681953430175781e+00,1.118092179298400879e+00,-4.295349121093750000e+00,9.689331054687500000e-01,-3.890991210937500000e-01
7.411513328552246094e+00,-1.606509327888488770e+00,-9.648633003234863281e+00,1.055842876434326172e+00,-6.401062011718750000e+00,9.689331054687500000e-01,-3.890991210937500000e-01
7.423284292221069336e+00,-1.728613615036010742e+00,-9.753977775573730469e+00,1.055842876434326172e+00,-6.408691406250000000e+00,1.007080078125000000e+00,-1.045227050781250000e+00
7.440571069717407227e+00,-1.434126853942871094e+00,-9.753977775573730469e+00,1.151610970497131126e+00,-6.782531738281250000e+00,1.007080078125000000e+00,-2.380371093750000000e+00
7.451272487640380859e+00,-1.477222442626953125e+00,-9.701305389404296875e+00,1.151610970497131126e+00,-6.408691406250000000e+00,1.007080078125000000e+00,-4.394531250000000000e+00
7.464698076248168945e+00,-1.199495077133178711e+00,-9.627084732055664062e+00,8.810662031173706055e-01,-6.889343261718750000e+00,-1.754760742187500000e-01,-2.380371093750000000e+00
7.479218006134033203e+00,-1.477222442626953125e+00,-9.459490776062011719e+00,8.810662031173706055e-01,-3.929138183593750000e+00,-1.754760742187500000e-01,3.204345703125000000e-01
7.492094278335571289e+00,-2.037465572357177734e+00,-9.495404243469238281e+00,9.121908545494079590e-01,-8.636474609375000000e+00,-2.380371093750000000e+00,3.440856933593750000e+00
7.504392147064208984e+00,-2.217030763626098189e+00,-9.370904922485351562e+00,1.584961533546447754e+00,-8.636474609375000000e+00,-2.380371093750000000e+00,3.440856933593750000e+00
7.521563291549682617e+00,-2.217030763626098189e+00,-9.495404243469238281e+00,1.584961533546447754e+00,-8.636474609375000000e+00,6.240844726562500000e+00,-7.751464843750000000e+00
7.532092094421386719e+00,-1.599326729774475098e+00,-9.988609313964843750e+00,4.572925269603729248e-01,-6.889343261718750000e+00,6.240844726562500000e+00,-7.751464843750000000e+00
7.546194791793823242e+00,-1.455674648284912109e+00,-9.988609313964843750e+00,4.572925269603729248e-01,-4.158020019531250000e+00,1.785278320312500000e+00,-5.950927734375000000e-01
7.564567804336547852e+00,-1.206677675247192383e+00,-9.349357604980468750e+00,7.685387134552001953e-01,-4.158020019531250000e+00,-9.918212890625000000e-02,1.655578613281250000e+00
7.576371192932128906e+00,-1.206677675247192383e+00,-9.215282440185548651e+00,9.959878921508787952e-01,-7.820129394531250000e+00,1.190185546875000000e+00,1.937866210937500000e+00
7.587530374526977539e+00,-1.709460020065307617e+00,-9.215282440185548651e+00,9.959878921508787952e-01,-9.735107421875000000e+00,1.190185546875000000e+00,1.937866210937500000e+00
7.602833986282348633e+00,-2.008735179901123047e+00,-9.928753852844238281e+00,9.816227108240120625e-02,-1.136779785156250000e+01,1.190185546875000000e+00,1.937866210937500000e+00
7.615471839904785156e+00,-2.272097349166870117e+00,-9.928753852844238281e+00,8.379705995321269640e-02,-1.136779785156250000e+01,-1.121520996093750000e+00,-1.373291015625000000e+00
7.630376577377319336e+00,-2.264914751052856445e+00,-9.911994934082031250e+00,9.816227108240120625e-02,-8.735656738281250000e+00,-3.417968750000000000e+00,-1.373291015625000000e+00
7.642231225967407227e+00,-2.264914751052856445e+00,-9.911994934082031250e+00,1.383848547935485840e+00,-8.735656738281250000e+00,-3.417968750000000000e+00,-1.373291015625000000e+00
7.656672477722167969e+00,-1.290474653244018555e+00,-9.911994934082031250e+00,1.383848547935485840e+00,-1.838684082031250000e+01,-3.417968750000000000e+00,-6.332397460937500000e-01
7.669257879257202148e+00,-1.290474653244018555e+00,-9.323020935058593750e+00,1.106121182441711426e+00,-1.838684082031250000e+01,7.553100585937500000e-01,3.997802734375000000e+00
7.684090375900268555e+00,-1.309628367424011230e+00,-9.323020935058593750e+00,2.082955390214920044e-01,-1.838684082031250000e+01,7.553100585937500000e-01,3.997802734375000000e+00
7.696060895919799805e+00,-1.309628367424011230e+00,-1.025675964355468750e+01,2.082955390214920044e-01,-1.486206054687500000e+01,7.553100585937500000e-01,3.997802734375000000e+00
7.711212873458862305e+00,-1.968033790588378906e+00,-1.025675964355468750e+01,3.495534360408782959e-01,-1.124572753906250000e+01,5.187988281250000000e+00,-4.020690917968750000e+00
7.723092794418334961e+00,-1.134851574897765891e+00,-9.287108421325683594e+00,3.495534360408782959e-01,-2.174377441406250000e+00,-4.425048828125000000e-01,8.163452148437500000e+00
7.738273859024047852e+00,-1.968033790588378906e+00,-9.287108421325683594e+00,1.446097850799560325e+00,-1.124572753906250000e+01,-4.425048828125000000e-01,3.616333007812500000e+00
7.750129938125610352e+00,-8.403647541999816895e-01,-9.516951560974119317e+00,-1.376665949821472168e+00,-9.719848632812500000e+00,-4.425048828125000000e-01,8.163452148437500000e+00
7.764642238616943359e+00,-5.195417404174804688e-01,-1.019211673736572443e+01,1.403002142906188965e+00,-9.719848632812500000e+00,1.716613769531250000e+00,1.240539550781250000e+01
7.777654886245727539e+00,-5.195417404174804688e-01,-1.019211673736572443e+01,1.283292055130004883e+00,-6.950378417968750000e+00,1.716613769531250000e+00,1.240539550781250000e+01
7.792151451110839844e+00,-5.195417404174804688e-01,-9.916783332824708808e+00,1.403002142906188965e+00,7.232666015625000000e+00,1.716613769531250000e+00,2.204895019531250000e+00
7.808459758758544922e+00,-4.620809257030487061e-01,-9.363722801208496094e+00,2.762908697128295898e+00,7.232666015625000000e+00,2.447509765625000000e+01,-4.203796386718750000e+00
7.818791866302490234e+00,-4.620809257030487061e-01,-9.363722801208496094e+00,2.762908697128295898e+00,1.148223876953125000e+01,2.447509765625000000e+01,-4.203796386718750000e+00
7.833634138107299805e+00,-1.522712230682373047e+00,-9.363722801208496094e+00,2.762908697128295898e+00,1.201629638671875000e+01,2.239990234375000000e+01,-4.989624023437500000e+00
7.846908092498779297e+00,-2.521094322204589844e+00,-1.083136844635009766e+01,3.167528867721557617e+00,1.201629638671875000e+01,1.248168945312500000e+01,-3.814697265625000000e+00
7.861361265182495117e+00,-2.521094322204589844e+00,-9.746794700622560370e+00,3.167528867721557617e+00,6.637573242187500000e+00,-1.660919189453125000e+01,4.737854003906250000e+00
7.873239994049072266e+00,-1.980004787445068359e+00,-1.003888797760009766e+01,2.106897354125977007e+00,6.637573242187500000e+00,-1.660919189453125000e+01,4.737854003906250000e+00
7.888503789901733398e+00,-1.338358759880065918e+00,-9.746794700622560370e+00,9.816226959228515625e-01,2.179718017578125000e+01,4.516601562500000000e+00,-2.128601074218750000e+00
7.903671979904174805e+00,-1.338358759880065918e+00,-1.003888797760009766e+01,-6.296750307083129883e-01,3.441619873046875000e+01,9.986877441406250000e+00,-3.883361816406250000e+00
7.916049003601074219e+00,-1.338358759880065918e+00,-1.047463226318359375e+01,-9.337386488914489746e-01,3.441619873046875000e+01,9.986877441406250000e+00,-2.128601074218750000e+00
7.930253267288208008e+00,-2.446874141693115234e+00,-1.047463226318359375e+01,-6.296750307083129883e-01,3.029632568359375000e+01,-1.441955566406250000e+00,-9.307861328125000000e-01
7.943322896957397461e+00,-2.130839586257934570e+00,-9.794678688049316406e+00,1.350329756736755371e+00,3.029632568359375000e+01,-1.441955566406250000e+00,6.881713867187500000e+00
7.957706928253173828e+00,-2.130839586257934570e+00,-9.794678688049316406e+00,3.064578056335449219e+00,3.168487548828125000e+01,5.790710449218750000e+00,6.881713867187500000e+00
7.969325542449951172e+00,-1.939303398132323997e+00,-1.016578006744384766e+01,3.064578056335449219e+00,3.168487548828125000e+01,5.790710449218750000e+00,5.767822265625000000e+00
7.985502481460571289e+00,-1.041477680206298828e+00,-1.016578006744384766e+01,2.013523578643798828e+00,3.168487548828125000e+01,5.317687988281250000e+00,-1.042938232421875000e+01
7.999860763549804688e+00,-1.872265696525573508e+00,-1.016578006744384766e+01,1.707065820693969505e+00,4.562377929687500000e+01,-5.111694335937500000e+00,-1.042938232421875000e+01
8.011663675308227539e+00,-1.041477680206298828e+00,-9.552865028381347656e+00,1.707065820693969505e+00,4.773712158203125000e+01,-4.806518554687500000e+00,-7.614135742187500000e+00
8.028777837753295898e+00,-1.307234048843383789e+00,-9.074024200439451349e+00,2.183511972427368164e+00,4.829406738281250000e+01,-4.806518554687500000e+00,-7.125854492187500000e+00
8.039790391921997070e+00,-1.307234048843383789e+00,-9.033323287963867188e+00,3.402160644531250000e+00,4.829406738281250000e+01,-4.806518554687500000e+00,5.187988281250000000e-01
8.052768945693969727e+00,-1.307234048843383789e+00,-8.738836288452148438e+00,3.663128614425659180e+00,3.902435302734375000e+01,-4.875183105468750000e+00,5.187988281250000000e-01
8.070687770843505859e+00,-1.242590665817260742e+00,-8.911218643188476562e+00,4.050989151000976562e+00,1.103973388671875000e+01,-4.966735839843750000e+00,5.187988281250000000e-01
8.081551551818847656e+00,-6.009446382522583008e-01,-8.911218643188476562e+00,4.050989151000976562e+00,-1.502990722656250000e+00,-7.728576660156250000e+00,9.605407714843750000e+00
8.096100091934204102e+00,-1.242590665817260742e+00,-8.911218643188476562e+00,6.296750307083129883e-01,-1.673889160156250000e+01,-8.949279785156250000e+00,1.174163818359375000e+01
8.109483480453491211e+00,-3.232172131538391113e-01,-9.672574996948242188e+00,6.296750307083129883e-01,-2.497863769531250000e+01,-1.041793823242187642e+02,9.605407714843750000e+00
8.122524976730346680e+00,-2.145204782485961914e+00,-5.971138954162597656e+00,9.983820915222167969e-01,-2.497863769531250000e+01,-1.041793823242187642e+02,6.866455078125000000e-02
8.134488821029663086e+00,8.283937573432922363e-01,-1.429577827453613281e+01,9.983820915222167969e-01,-1.440429687500000000e+01,4.698944091796875000e+01,6.866455078125000000e-02
8.151575565338134766e+00,8.283937573432922363e-01,-9.366116523742675781e+00,1.242590665817260742e+00,-1.440429687500000000e+01,4.698944091796875000e+01,2.586364746093750000e+00
8.162580251693725586e+00,8.283937573432922363e-01,-9.366116523742675781e+00,4.295197963714599609e+00,-1.440429687500000000e+01,-5.203247070312500000e+00,2.586364746093750000e+00
8.176300287246704102e+00,-4.764461219310759943e-01,-9.366116523742675781e+00,4.295197963714599609e+00,4.570007324218750000e+00,-5.203247070312500000e+00,2.586364746093750000e+00
8.193653345108032227e+00,-3.373430252075195757e+00,-8.588001251220703125e+00,2.765302896499633789e+00,4.570007324218750000e+00,-3.288269042968750000e+00,-2.204895019531250000e+00
8.204315900802612305e+00,-3.373430252075195757e+00,-9.957484245300291192e+00,2.293645143508911133e+00,-1.289367675781250000e+00,2.059936523437500000e-01,-4.669189453125000000e+00
8.217690229415893555e+00,-8.619125932455060091e-02,-9.124302864074708808e+00,2.489969730377197266e+00,-6.271362304687500000e+00,1.319885253906250000e+00,-4.669189453125000000e+00
8.232638597488403320e+00,-8.619125932455060091e-02,-9.557653427124023438e+00,2.293645143508911133e+00,-1.289367675781250000e+00,1.319885253906250000e+00,1.861572265625000000e+00
8.245947599411010742e+00,-2.997540473937988281e+00,-9.557653427124023438e+00,2.087743759155272993e+00,-3.295898437500000000e+00,1.998901367187500000e+00,1.861572265625000000e+00
8.257728576660156250e+00,-2.997540473937988281e+00,-9.751583099365234375e+00,1.994369983673095925e+00,-3.295898437500000000e+00,1.998901367187500000e+00,-6.317138671875000000e+00
8.271839141845703125e+00,-2.968810200691223145e-01,-9.751583099365234375e+00,1.994369983673095925e+00,-3.295898437500000000e+00,1.998901367187500000e+00,-6.317138671875000000e+00
8.287499427795410156e+00,-2.968810200691223145e-01,-9.330204010009765625e+00,2.755726099014282227e+00,-2.136230468750000000e+00,6.103515625000000000e-02,2.693176269531250000e+00
8.299408674240112305e+00,-1.831564307212829590e+00,-9.330204010009765625e+00,2.755726099014282227e+00,-2.136230468750000000e+00,-1.342773437500000000e+00,2.693176269531250000e+00
8.315041065216064453e+00,-1.831564307212829590e+00,-9.330204010009765625e+00,1.580173134803771973e+00,-2.136230468750000000e+00,-1.342773437500000000e+00,-4.318237304687500000e+00
8.325885534286499023e+00,-1.098938584327697754e+00,-9.169792175292968750e+00,1.580173134803771973e+00,-3.402709960937500000e+00,-1.342773437500000000e+00,-4.318237304687500000e+00
8.341201066970825195e+00,-1.098938584327697754e+00,-9.169792175292968750e+00,1.580173134803771973e+00,-5.546569824218750000e+00,8.697509765625000000e-01,1.457214355468750000e+00
8.354967355728149414e+00,-1.288080453872680886e+00,-9.873687744140623224e+00,1.572990536689758301e+00,-5.546569824218750000e+00,8.697509765625000000e-01,4.219055175781250000e+00
8.367810487747192383e+00,-2.231395959854125977e+00,-9.873687744140623224e+00,1.572990536689758301e+00,-4.081726074218750000e+00,-3.005981445312500000e+00,4.219055175781250000e+00
8.382515192031860352e+00,-2.231395959854125977e+00,-9.404423713684082031e+00,2.583343505859375000e+00,-4.081726074218750000e+00,-3.005981445312500000e+00,-4.608154296875000000e+00
8.395555734634399414e+00,1.604115068912506104e-01,-9.404423713684082031e+00,2.583343505859375000e+00,-4.081726074218750000e+00,1.708984375000000000e+00,-4.608154296875000000e+00
8.410237312316894531e+00,1.604115068912506104e-01,-9.404423713684082031e+00,2.446874141693115234e+00,-2.952575683593750000e+00,1.708984375000000000e+00,3.860473632812500000e+00
8.421941280364990234e+00,-2.387019157409667969e+00,-9.344569206237791192e+00,2.106897354125977007e+00,-2.952575683593750000e+00,1.708984375000000000e+00,3.860473632812500000e+00
8.437136650085449219e+00,-2.387019157409667969e+00,-9.344569206237791192e+00,2.106897354125977007e+00,-4.905700683593750000e+00,1.754760742187500000e+00,1.266479492187500000e+00
8.448989152908325195e+00,-6.153098344802856445e-01,-9.296685218811035156e+00,2.106897354125977007e+00,-4.905700683593750000e+00,1.754760742187500000e+00,1.266479492187500000e+00
8.464818716049194336e+00,-6.153098344802856445e-01,-9.124302864074708808e+00,2.149993181228637695e+00,-3.952026367187500000e+00,1.754760742187500000e+00,3.166198730468750000e+00
8.478453874588012695e+00,-2.217030763626098189e+00,-9.124302864074708808e+00,2.173935174942016602e+00,-3.952026367187500000e+00,8.163452148437500000e-01,3.166198730468750000e+00
8.491500139236450195e+00,-2.217030763626098189e+00,-9.382876396179199219e+00,2.173935174942016602e+00,-3.952026367187500000e+00,8.163452148437500000e-01,-2.990722656250000000e+00
8.505785703659057617e+00,-6.919242739677429199e-01,-9.459490776062011719e+00,2.173935174942016602e+00,-3.295898437500000000e+00,3.128051757812500000e-01,-2.990722656250000000e+00
8.517673730850219727e+00,-6.919242739677429199e-01,-9.560047149658203125e+00,1.991975784301757590e+00,-3.295898437500000000e+00,2.899169921875000000e-01,3.250122070312500000e+00
8.533848285675048828e+00,-2.616862297058105025e+00,-9.873687744140623224e+00,1.692700624465942383e+00,-3.471374511718750000e+00,-3.662109375000000000e-01,3.250122070312500000e+00
8.547888755798339844e+00,-2.616862297058105025e+00,-9.873687744140623224e+00,1.692700624465942383e+00,-3.562927246093750000e+00,-3.662109375000000000e-01,3.509521484375000000e-01
8.559594154357910156e+00,-9.026139974594116211e-01,-9.418788909912109375e+00,2.176329374313354492e+00,-3.761291503906250000e+00,-9.155273437500000000e-02,3.509521484375000000e-01
8.576533079147338867e+00,-9.026139974594116211e-01,-9.418788909912109375e+00,2.195482969284057617e+00,-3.761291503906250000e+00,-9.155273437500000000e-02,1.708984375000000000e+00
8.587379693984985352e+00,-1.853112101554870383e+00,-9.442730903625488281e+00,2.195482969284057617e+00,-3.395080566406250000e+00,-9.002685546875000000e-01,1.708984375000000000e+00
8.603365898132324219e+00,-1.853112101554870383e+00,-9.485827445983888495e+00,2.054224967956542969e+00,-3.395080566406250000e+00,-9.002685546875000000e-01,-3.814697265625000000e-02
8.615063667297363281e+00,-1.163581967353820801e+00,-9.555258750915527344e+00,2.054224967956542969e+00,-4.692077636718750000e+00,8.316040039062500000e-01,-3.814697265625000000e-02
8.629101753234863281e+00,-1.163581967353820801e+00,-9.555258750915527344e+00,2.190694570541381836e+00,-4.692077636718750000e+00,1.243591308593750000e+00,2.159118652343750000e+00
8.644920587539672852e+00,-1.323993563652038574e+00,-9.689333915710449219e+00,2.190694570541381836e+00,-3.631591796875000000e+00,1.243591308593750000e+00,2.159118652343750000e+00
8.658908367156982422e+00,-1.958456993103027566e+00,-9.703699111938476562e+00,2.013523578643798828e+00,-3.021240234375000000e+00,-7.629394531250000000e-01,-8.392333984375000000e-02
8.671406030654907227e+00,-1.958456993103027566e+00,-9.703699111938476562e+00,2.008735179901123047e+00,-3.021240234375000000e+00,-1.121520996093750000e+00,-8.392333984375000000e-02
8.682500600814819336e+00,-1.055842876434326172e+00,-9.703699111938476562e+00,2.008735179901123047e+00,-4.043579101562500000e+00,-1.121520996093750000e+00,3.814697265625000000e-02
8.700619220733642578e+00,-1.055842876434326172e+00,-9.449913978576660156e+00,1.838746905326843706e+00,-4.043579101562500000e+00,4.501342773437500000e-01,2.059936523437500000e+00
8.711776733398437500e+00,-1.824381709098815918e+00,-9.392453193664550781e+00,2.056619167327880859e+00,-3.433227539062500000e+00,4.501342773437500000e-01,2.059936523437500000e+00
8.724774122238159180e+00,-1.824381709098815918e+00,-9.303867340087890625e+00,2.056619167327880859e+00,-3.433227539062500000e+00,4.501342773437500000e-01,-1.235961914062500000e+00
8.742447376251220703e+00,-1.240196466445922852e+00,-9.303867340087890625e+00,2.056619167327880859e+00,-3.311157226562500000e+00,-3.662109375000000000e-01,-1.235961914062500000e+00
8.753582239151000977e+00,-1.240196466445922852e+00,-9.375693321228027344e+00,2.159569978713989258e+00,-3.265380859375000000e+00,1.907348632812500000e-01,2.052307128906250000e+00
