# elapsed time, f2_acc_x, f2_acc_y, f2_acc_z, f2_gyro_x, f2_gyro_y, f2_gyro_z
6.387260913848876953e+00,-4.177881717681884766e+00,-3.988739967346191850e+00,7.958326339721679688e+00,4.425048828125000000e-01,-2.365112304687500000e-01,9.155273437500000000e-02
6.400330781936645508e+00,-4.197035312652587891e+00,-3.988739967346191850e+00,7.958326339721679688e+00,3.814697265625000000e-02,-2.365112304687500000e-01,9.155273437500000000e-02
6.412269115447998047e+00,-4.197035312652587891e+00,-3.988739967346191850e+00,7.953537940979003906e+00,3.814697265625000000e-02,-2.365112304687500000e-01,-1.373291015625000000e-01
6.426882982254028320e+00,-4.118026733398437500e+00,-4.060565948486328125e+00,7.953537940979003906e+00,3.814697265625000000e-02,1.754760742187500000e-01,-1.831054687500000000e-01
6.438409566879272461e+00,-4.108449935913085938e+00,-4.039018154144287109e+00,7.953537940979003906e+00,1.525878906250000000e-02,-7.629394531250000000e-01,-3.433227539062500000e-01
6.451161384582519531e+00,-4.094084739685058594e+00,-4.065354347229003906e+00,7.922413349151611328e+00,1.525878906250000000e-02,-7.781982421875000000e-01,-3.433227539062500000e-01
6.466309309005737305e+00,-4.084507942199707031e+00,-4.082113742828369141e+00,7.910442352294921875e+00,1.831054687500000000e-01,-7.781982421875000000e-01,1.220703125000000000e-01
6.478070020675659180e+00,-4.089296340942382812e+00,-4.094084739685058594e+00,7.893682956695556641e+00,1.831054687500000000e-01,-6.103515625000000000e-01,1.220703125000000000e-01
6.489726543426513672e+00,-4.089296340942382812e+00,-4.094084739685058594e+00,7.893682956695556641e+00,1.678466796875000000e-01,-7.629394531250000000e-02,7.629394531250000000e-02
6.504002571105957031e+00,-4.094084739685058594e+00,-4.094084739685058594e+00,7.910442352294921875e+00,8.392333984375000000e-02,4.425048828125000000e-01,3.814697265625000000e-02
6.517416000366210938e+00,-4.129997730255126953e+00,-4.103661537170410156e+00,7.910442352294921875e+00,1.678466796875000000e-01,4.425048828125000000e-01,-1.296997070312500000e-01
6.531731367111206055e+00,-4.094084739685058594e+00,-4.065354347229003906e+00,7.807491779327392578e+00,6.866455078125000000e-02,2.288818359375000000e-01,3.814697265625000000e-02
6.542937517166137695e+00,-4.129997730255126953e+00,-4.065354347229003906e+00,7.807491779327392578e+00,6.866455078125000000e-02,-3.814697265625000000e-01,9.155273437500000000e-02
6.556366682052612305e+00,-4.129997730255126953e+00,-4.050989151000976562e+00,7.826645374298095703e+00,6.866455078125000000e-02,-3.814697265625000000e-01,9.155273437500000000e-02
6.570607662200927734e+00,-4.192246913909912109e+00,-4.050989151000976562e+00,7.857769966125488281e+00,1.525878906250000000e-01,-3.814697265625000000e-01,2.899169921875000000e-01
6.582318067550659180e+00,-4.230554103851318359e+00,-4.065354347229003906e+00,7.826645374298095703e+00,2.899169921875000000e-01,-8.544921875000000000e-01,-4.577636718750000000e-02
6.595525741577148438e+00,-4.192246913909912109e+00,-4.065354347229003906e+00,7.953537940979003906e+00,2.899169921875000000e-01,-8.544921875000000000e-01,4.882812500000000000e-01
6.609519720077514648e+00,-4.230554103851318359e+00,-4.034229755401611328e+00,7.809885978698729581e+00,1.602172851562500000e-01,-5.874633789062500000e-01,1.525878906250000000e-01
6.621714591979980469e+00,-4.108449935913085938e+00,-4.034229755401611328e+00,7.999027729034423828e+00,1.602172851562500000e-01,-5.874633789062500000e-01,1.525878906250000000e-01
6.636825323104858398e+00,-4.110844135284423828e+00,-4.034229755401611328e+00,7.999027729034423828e+00,1.602172851562500000e-01,-5.874633789062500000e-01,1.525878906250000000e-01
6.648454904556274414e+00,-4.096478939056396484e+00,-4.046200752258300781e+00,8.020575523376464844e+00,9.155273437500000000e-02,-2.517700195312500000e-01,-6.866455078125000000e-02
6.661518573760986328e+00,-4.110844135284423828e+00,-3.983951568603516069e+00,8.020575523376464844e+00,9.155273437500000000e-02,-5.187988281250000000e-01,7.629394531250000000e-03
6.674636363983154297e+00,-4.161122322082520419e+00,-4.046200752258300781e+00,7.991845130920410156e+00,4.577636718750000000e-02,2.593994140625000000e-01,7.629394531250000000e-03
6.688132286071777344e+00,-4.177881717681884766e+00,-4.053383350372314453e+00,7.970297336578369141e+00,3.585815429687500000e-01,4.425048828125000000e-01,7.629394531250000000e-03
6.699517965316772461e+00,-4.177881717681884766e+00,-4.074931144714356357e+00,7.991845130920410156e+00,-3.814697265625000000e-02,4.425048828125000000e-01,6.103515625000000000e-02
6.716994524002075195e+00,-4.230554103851318359e+00,-4.089296340942382812e+00,7.845798969268798828e+00,4.196166992187500000e-01,4.425048828125000000e-01,-2.899169921875000000e-01
6.727952480316162109e+00,-4.192246913909912109e+00,-4.089296340942382812e+00,7.999027729034423828e+00,1.831054687500000000e-01,-1.373291015625000000e-01,-1.754760742187500000e-01
6.737696170806884766e+00,-4.230554103851318359e+00,-4.074931144714356357e+00,7.965508937835693359e+00,1.831054687500000000e-01,-1.373291015625000000e-01,-1.754760742187500000e-01
6.756150245666503906e+00,-4.192246913909912109e+00,-4.065354347229003906e+00,7.965508937835693359e+00,1.831054687500000000e-01,-1.373291015625000000e-01,-1.754760742187500000e-01
6.766229629516601562e+00,-4.230554103851318359e+00,-4.050989151000976562e+00,7.939172744750976562e+00,2.593994140625000000e-01,-1.907348632812500000e-01,-3.585815429687500000e-01
6.776858329772949219e+00,-4.177881717681884766e+00,-4.041412353515625000e+00,7.939172744750976562e+00,2.593994140625000000e-01,-1.907348632812500000e-01,-3.585815429687500000e-01
6.795121192932128906e+00,-4.170699119567871094e+00,-4.046200752258300781e+00,7.970297336578369141e+00,7.629394531250000000e-03,-2.517700195312500000e-01,-2.365112304687500000e-01
6.805507659912109375e+00,-4.170699119567871094e+00,-4.046200752258300781e+00,7.970297336578369141e+00,-6.103515625000000000e-02,-4.196166992187500000e-01,2.212524414062500000e-01
6.816336393356323242e+00,-4.151545524597167969e+00,-4.048594951629638672e+00,7.888894557952880859e+00,-6.103515625000000000e-02,-4.806518554687500000e-01,2.212524414062500000e-01
6.833896636962890625e+00,-4.151545524597167969e+00,-4.048594951629638672e+00,7.888894557952880859e+00,4.501342773437500000e-01,-4.806518554687500000e-01,-7.629394531250000000e-03
6.844820022583007812e+00,-4.144362926483154297e+00,-4.043806552886962891e+00,7.972691535949707031e+00,4.501342773437500000e-01,-5.722045898437500000e-01,-7.629394531250000000e-03
6.855445384979248047e+00,-4.144362926483154297e+00,-4.003105163574218750e+00,7.972691535949707031e+00,2.975463867187500000e-01,-6.408691406250000000e-01,3.204345703125000000e-01
6.870834350585937500e+00,-4.168304920196533203e+00,-4.043806552886962891e+00,7.936778545379638672e+00,1.220703125000000000e-01,-6.408691406250000000e-01,3.356933593750000000e-01
6.882246017456054688e+00,-4.177881717681884766e+00,-4.074931144714356357e+00,7.881711959838867188e+00,2.975463867187500000e-01,3.433227539062500000e-01,3.356933593750000000e-01
6.894880294799804688e+00,-4.249708175659179688e+00,-4.074931144714356357e+00,7.881711959838867188e+00,4.882812500000000000e-01,3.433227539062500000e-01,-3.128051757812500000e-01
6.909940481185913086e+00,-4.249708175659179688e+00,-4.067748546600341797e+00,7.881711959838867188e+00,4.882812500000000000e-01,1.678466796875000000e-01,-4.959106445312500000e-01
6.921271324157714844e+00,-4.201823711395263672e+00,-4.067748546600341797e+00,7.929595947265625000e+00,2.670288085937500000e-01,6.866455078125000000e-02,-5.493164062500000000e-01
6.934724092483520508e+00,-4.201823711395263672e+00,-4.067748546600341797e+00,7.929595947265625000e+00,2.441406250000000000e-01,5.340576171875000000e-02,-5.493164062500000000e-01
6.948512077331542969e+00,-4.204217910766601562e+00,-4.108449935913085938e+00,7.929595947265625000e+00,2.441406250000000000e-01,6.866455078125000000e-02,-5.493164062500000000e-01
6.960799455642700195e+00,-4.204217910766601562e+00,-4.108449935913085938e+00,7.927201747894287109e+00,3.128051757812500000e-01,-7.629394531250000000e-02,-5.569458007812500000e-01
6.972809076309204102e+00,-4.163516521453857422e+00,-4.029441356658936435e+00,7.927201747894287109e+00,3.128051757812500000e-01,-2.593994140625000000e-01,-3.814697265625000000e-01
6.988122224807739258e+00,-4.079719543457031250e+00,-4.029441356658936435e+00,7.905653953552246094e+00,1.525878906250000000e-01,-4.882812500000000000e-01,-1.220703125000000000e-01
6.998953580856323242e+00,-4.079719543457031250e+00,-4.034229755401611328e+00,7.879317760467529297e+00,1.144409179687500000e-01,-4.882812500000000000e-01,3.051757812500000000e-02
7.014060974121093750e+00,-4.197035312652587891e+00,-4.039018154144287109e+00,7.879317760467529297e+00,1.144409179687500000e-01,-3.662109375000000000e-01,1.220703125000000000e-01
7.026384830474853516e+00,-4.225765705108642578e+00,-4.086902141571044922e+00,7.920019149780273438e+00,8.392333984375000000e-02,1.678466796875000000e-01,1.449584960937500000e-01
7.038196563720703125e+00,-4.225765705108642578e+00,-4.086902141571044922e+00,7.920019149780273438e+00,8.392333984375000000e-02,1.678466796875000000e-01,1.220703125000000000e-01
7.053838491439819336e+00,-4.168304920196533203e+00,-4.065354347229003906e+00,7.891288757324218750e+00,8.392333984375000000e-02,-6.103515625000000000e-02,6.103515625000000000e-02
7.065908432006835938e+00,-4.163516521453857422e+00,-4.065354347229003906e+00,7.891288757324218750e+00,1.831054687500000000e-01,-1.190185546875000000e+00,6.103515625000000000e-02
7.077055215835571289e+00,-4.163516521453857422e+00,-4.065354347229003906e+00,7.891288757324218750e+00,1.144409179687500000e-01,-3.509521484375000000e-01,7.629394531250000000e-02
7.092686414718627930e+00,-4.163516521453857422e+00,-4.034229755401611328e+00,7.817068576812744141e+00,5.264282226562500000e-01,-3.509521484375000000e-01,7.629394531250000000e-02
7.104192256927490234e+00,-4.062960147857666016e+00,-4.029441356658936435e+00,7.936778545379638672e+00,2.288818359375000000e-01,-2.899169921875000000e-01,6.866455078125000000e-02
7.117496252059936523e+00,-4.039018154144287109e+00,-4.012681961059570312e+00,7.999027729034423828e+00,2.288818359375000000e-01,-1.144409179687500000e-01,6.866455078125000000e-02
7.131669759750366211e+00,-4.039018154144287109e+00,-4.012681961059570312e+00,7.999027729034423828e+00,8.392333984375000000e-02,-7.629394531250000000e-03,2.441406250000000000e-01
7.143047571182250977e+00,-4.129997730255126953e+00,-4.048594951629638672e+00,7.960720539093017578e+00,8.392333984375000000e-02,-1.144409179687500000e-01,2.441406250000000000e-01
7.156427383422851562e+00,-4.137180328369140625e+00,-4.062960147857666016e+00,7.960720539093017578e+00,4.959106445312500000e-01,-4.577636718750000000e-01,1.602172851562500000e-01
7.170542716979980469e+00,-4.156333923339843750e+00,-4.079719543457031250e+00,7.960720539093017578e+00,4.959106445312500000e-01,-4.577636718750000000e-01,1.602172851562500000e-01
7.183562278747558594e+00,-4.165910720825195312e+00,-4.141968727111816406e+00,7.960720539093017578e+00,3.204345703125000000e-01,5.950927734375000000e-01,1.907348632812500000e-01
7.195644855499267578e+00,-4.237736701965332031e+00,-4.141968727111816406e+00,7.903259754180908203e+00,1.678466796875000000e-01,5.950927734375000000e-01,1.907348632812500000e-01
7.209686517715454102e+00,-4.259284973144531250e+00,-4.079719543457031250e+00,7.903259754180908203e+00,3.204345703125000000e-01,-2.517700195312500000e-01,-2.288818359375000000e-02
7.222304821014404297e+00,-4.259284973144531250e+00,-4.079719543457031250e+00,7.896077156066894531e+00,3.662109375000000000e-01,-2.822875976562500000e-01,-1.144409179687500000e-01
7.236201524734497070e+00,-4.161122322082520419e+00,-4.029441356658936435e+00,7.912836551666259766e+00,3.662109375000000000e-01,-2.517700195312500000e-01,-3.814697265625000000e-01
7.249032974243164062e+00,-4.161122322082520419e+00,-3.988739967346191850e+00,7.896077156066894531e+00,2.441406250000000000e-01,-4.959106445312500000e-01,-3.814697265625000000e-01
7.261225461959838867e+00,-4.283226966857910156e+00,-4.029441356658936435e+00,7.905653953552246094e+00,2.441406250000000000e-01,-1.220703125000000000e-01,-9.918212890625000000e-02
7.278135776519775391e+00,-4.283226966857910156e+00,-4.046200752258300781e+00,7.905653953552246094e+00,2.441406250000000000e-01,-4.959106445312500000e-01,-9.918212890625000000e-02
7.287972688674926758e+00,-4.242525577545166016e+00,-4.046200752258300781e+00,7.912836551666259766e+00,2.441406250000000000e-01,-3.662109375000000000e-01,-7.629394531250000000e-02
7.299346923828125000e+00,-4.242525577545166016e+00,-4.046200752258300781e+00,7.912836551666259766e+00,4.348754882812500000e-01,-3.662109375000000000e-01,-5.264282226562500000e-01
7.314138174057006836e+00,-4.242525577545166016e+00,-4.067748546600341797e+00,7.948749542236328125e+00,4.348754882812500000e-01,-3.662109375000000000e-01,-4.272460937500000000e-01
7.327554941177368164e+00,-4.256890773773193359e+00,-4.067748546600341797e+00,7.881711959838867188e+00,4.348754882812500000e-01,-2.288818359375000000e-01,-4.272460937500000000e-01
7.338552713394165039e+00,-4.122815132141113281e+00,-4.067748546600341797e+00,7.991845130920410156e+00,3.356933593750000000e-01,-2.288818359375000000e-01,-4.272460937500000000e-01
7.355993032455444336e+00,-4.132391929626464844e+00,-4.086902141571044922e+00,7.991845130920410156e+00,2.059936523437500000e-01,-9.155273437500000000e-02,-3.051757812500000000e-01
7.366555213928222656e+00,-4.132391929626464844e+00,-4.086902141571044922e+00,7.991845130920410156e+00,3.128051757812500000e-01,1.144409179687500000e-01,-5.111694335937500000e-01
7.377728939056396484e+00,-4.213794708251953125e+00,-4.062960147857666016e+00,7.879317760467529297e+00,3.128051757812500000e-01,2.136230468750000000e-01,-3.051757812500000000e-01
7.395041704177856445e+00,-4.316745758056640625e+00,-4.062960147857666016e+00,7.879317760467529297e+00,3.128051757812500000e-01,6.561279296875000000e-01,0.000000000000000000e+00
7.405960083007812500e+00,-4.213794708251953125e+00,-4.062960147857666016e+00,7.879317760467529297e+00,1.220703125000000000e-01,2.136230468750000000e-01,0.000000000000000000e+00
7.416637182235717773e+00,-4.125209331512451172e+00,-4.077325344085693359e+00,7.977479934692382812e+00,1.220703125000000000e-01,-3.890991210937500000e-01,7.629394531250000000e-02
7.433863162994384766e+00,-4.125209331512451172e+00,-4.062960147857666016e+00,7.850587368011474609e+00,2.365112304687500000e-01,-3.890991210937500000e-01,7.629394531250000000e-02
7.443745374679565430e+00,-4.192246913909912109e+00,-4.077325344085693359e+00,7.941566944122313565e+00,2.365112304687500000e-01,-4.577636718750000000e-02,7.629394531250000000e-02
7.455604791641235352e+00,-4.192246913909912109e+00,-4.094084739685058594e+00,7.888894557952880859e+00,2.365112304687500000e-01,-4.577636718750000000e-02,7.629394531250000000e-03
7.471185207366943359e+00,-4.192246913909912109e+00,-4.094084739685058594e+00,7.888894557952880859e+00,8.392333984375000000e-02,2.822875976562500000e-01,7.629394531250000000e-03
7.482854366302490234e+00,-4.197035312652587891e+00,-4.101267337799072266e+00,7.857769966125488281e+00,4.196166992187500000e-01,-5.416870117187500000e-01,-7.629394531250000000e-03
7.494642257690429688e+00,-4.230554103851318359e+00,-3.991134166717528853e+00,7.857769966125488281e+00,1.525878906250000000e-01,2.822875976562500000e-01,6.103515625000000000e-02
7.509726047515869141e+00,-4.197035312652587891e+00,-4.094084739685058594e+00,7.915230751037597656e+00,1.525878906250000000e-01,2.288818359375000000e-02,-1.525878906250000000e-02
7.521988630294799805e+00,-4.182670116424560547e+00,-4.019864559173583984e+00,7.958326339721679688e+00,6.866455078125000000e-02,2.288818359375000000e-02,6.103515625000000000e-02
7.534295797348022461e+00,-4.156333923339843750e+00,-4.072536945343017578e+00,7.982268333435058594e+00,3.051757812500000000e-02,-3.051757812500000000e-02,-3.814697265625000000e-02
7.548586845397949219e+00,-4.146757125854492188e+00,-4.050989151000976562e+00,7.982268333435058594e+00,3.051757812500000000e-02,-2.670288085937500000e-01,1.525878906250000000e-01
7.560597658157348633e+00,-4.146757125854492188e+00,-4.050989151000976562e+00,7.982268333435058594e+00,3.051757812500000000e-02,-3.051757812500000000e-02,7.629394531250000000e-03
7.575672864913940430e+00,-4.211400508880615234e+00,-4.050989151000976562e+00,7.972691535949707031e+00,1.907348632812500000e-01,-3.433227539062500000e-01,3.128051757812500000e-01
7.587871313095092773e+00,-4.211400508880615234e+00,-4.062960147857666016e+00,7.934384346008300781e+00,2.441406250000000000e-01,-3.433227539062500000e-01,7.629394531250000000e-03
7.599924087524414062e+00,-4.151545524597167969e+00,-4.070142745971679688e+00,7.934384346008300781e+00,2.441406250000000000e-01,-3.433227539062500000e-01,-2.288818359375000000e-02
7.614690780639648438e+00,-4.151545524597167969e+00,-4.070142745971679688e+00,7.876923561096191406e+00,2.136230468750000000e-01,-1.602172851562500000e-01,-3.280639648437500000e-01
7.627431392669677734e+00,-4.268861770629882812e+00,-4.070142745971679688e+00,7.888894557952880859e+00,2.136230468750000000e-01,-8.392333984375000000e-02,-4.043579101562500000e-01
7.638642787933349609e+00,-4.268861770629882812e+00,-4.062960147857666016e+00,7.876923561096191406e+00,4.577636718750000000e-01,-8.392333984375000000e-02,-4.043579101562500000e-01
7.653505563735961914e+00,-4.209006309509277344e+00,-4.082113742828369141e+00,7.867346763610839844e+00,4.577636718750000000e-01,-4.653930664062500000e-01,-1.907348632812500000e-01
7.666320323944091797e+00,-4.177881717681884766e+00,-4.046200752258300781e+00,7.867346763610839844e+00,2.059936523437500000e-01,-4.882812500000000000e-01,0.000000000000000000e+00
7.678357839584350586e+00,-4.165910720825195312e+00,-4.082113742828369141e+00,7.924807548522949219e+00,1.831054687500000000e-01,-4.882812500000000000e-01,0.000000000000000000e+00
7.693056344985961914e+00,-4.158728122711181641e+00,-4.110844135284423828e+00,8.010998725891113281e+00,5.340576171875000000e-02,1.068115234375000000e-01,-5.340576171875000000e-02
7.704736471176147461e+00,-4.134786128997802734e+00,-4.110844135284423828e+00,8.010998725891113281e+00,5.340576171875000000e-02,1.068115234375000000e-01,-5.340576171875000000e-02
7.717506885528564453e+00,-4.134786128997802734e+00,-4.118026733398437500e+00,7.975085735321044922e+00,8.392333984375000000e-02,-3.356933593750000000e-01,-5.340576171875000000e-02
7.732053756713867188e+00,-4.134786128997802734e+00,-4.046200752258300781e+00,7.975085735321044922e+00,3.585815429687500000e-01,-4.272460937500000000e-01,-5.493164062500000000e-01
7.743581295013427734e+00,-4.211400508880615234e+00,-4.046200752258300781e+00,7.984662532806396484e+00,3.585815429687500000e-01,-3.356933593750000000e-01,-5.493164062500000000e-01
7.756540775299072266e+00,-4.197035312652587891e+00,-3.981557369232177734e+00,7.987056732177734375e+00,5.340576171875000000e-02,-1.068115234375000000e-01,-1.831054687500000000e-01
7.771219730377197266e+00,-4.197035312652587891e+00,-3.981557369232177734e+00,8.073247909545898438e+00,-1.144409179687500000e-01,-5.340576171875000000e-02,-7.629394531250000000e-03
7.782814979553222656e+00,-4.139574527740479404e+00,-4.029441356658936435e+00,8.010998725891113281e+00,5.340576171875000000e-02,8.392333984375000000e-02,3.585815429687500000e-01
7.795642137527465820e+00,-4.103661537170410156e+00,-4.060565948486328125e+00,8.010998725891113281e+00,2.517700195312500000e-01,-5.340576171875000000e-02,3.585815429687500000e-01
7.810201168060302734e+00,-4.103661537170410156e+00,-4.122815132141113281e+00,7.991845130920410156e+00,2.517700195312500000e-01,-1.907348632812500000e-01,3.585815429687500000e-01
7.821916103363037109e+00,-4.103661537170410156e+00,-4.067748546600341797e+00,7.903259754180908203e+00,2.441406250000000000e-01,-1.907348632812500000e-01,3.051757812500000000e-01
7.836023092269897461e+00,-4.240131378173828125e+00,-4.168304920196533203e+00,7.860164165496826172e+00,2.441406250000000000e-01,-1.907348632812500000e-01,-6.103515625000000000e-02
7.848501443862915039e+00,-4.240131378173828125e+00,-4.110844135284423828e+00,7.903259754180908203e+00,2.441406250000000000e-01,-4.348754882812500000e-01,-9.155273437500000000e-02
7.860455751419067383e+00,-4.180275917053222656e+00,-4.110844135284423828e+00,7.831433773040771484e+00,-3.051757812500000000e-02,-4.348754882812500000e-01,-9.155273437500000000e-02
7.877705574035644531e+00,-4.127603530883789062e+00,-4.091690540313720703e+00,7.972691535949707031e+00,-1.525878906250000000e-01,-1.296997070312500000e-01,-9.155273437500000000e-02
7.888132333755493164e+00,-4.161122322082520419e+00,-4.074931144714356357e+00,7.829039573669433594e+00,-1.525878906250000000e-01,1.296997070312500000e-01,6.866455078125000000e-02
7.899416923522949219e+00,-4.161122322082520419e+00,-4.074931144714356357e+00,7.912836551666259766e+00,4.501342773437500000e-01,1.296997070312500000e-01,6.866455078125000000e-02
7.916995286941528320e+00,-4.161122322082520419e+00,-4.074931144714356357e+00,7.912836551666259766e+00,4.501342773437500000e-01,8.392333984375000000e-02,-8.392333984375000000e-02
7.927859067916870117e+00,-4.156333923339843750e+00,-4.065354347229003906e+00,7.920019149780273438e+00,2.059936523437500000e-01,-8.392333984375000000e-02,-1.220703125000000000e-01
7.939045190811157227e+00,-4.156333923339843750e+00,-4.065354347229003906e+00,7.931990146636962891e+00,2.059936523437500000e-01,-9.918212890625000000e-02,-8.392333984375000000e-02
7.956198215484619141e+00,-4.244919776916503906e+00,-4.091690540313720703e+00,7.931990146636962891e+00,4.882812500000000000e-01,-3.280639648437500000e-01,-2.212524414062500000e-01
7.967225074768066406e+00,-4.244919776916503906e+00,-4.091690540313720703e+00,7.931990146636962891e+00,4.882812500000000000e-01,-9.078979492187500000e-01,1.068115234375000000e-01
7.977576494216918945e+00,-4.206612110137940341e+00,-4.022258758544921875e+00,7.931990146636962891e+00,4.806518554687500000e-01,-3.280639648437500000e-01,-1.449584960937500000e-01
7.995907783508300781e+00,-4.151545524597167969e+00,-4.022258758544921875e+00,7.831433773040771484e+00,5.340576171875000000e-02,-8.392333984375000000e-01,1.068115234375000000e-01
8.006621122360229492e+00,-4.206612110137940341e+00,-4.039018154144287109e+00,7.852981567382812500e+00,5.340576171875000000e-02,-8.392333984375000000e-01,6.866455078125000000e-02
8.019154787063598633e+00,-4.103661537170410156e+00,-4.072536945343017578e+00,7.852981567382812500e+00,4.425048828125000000e-01,-8.392333984375000000e-01,6.866455078125000000e-02
8.033968925476074219e+00,-4.192246913909912109e+00,-4.039018154144287109e+00,7.951143741607666016e+00,4.425048828125000000e-01,-5.187988281250000000e-01,-2.288818359375000000e-02
8.043115377426147461e+00,-4.192246913909912109e+00,-4.072536945343017578e+00,7.951143741607666016e+00,3.890991210937500000e-01,1.068115234375000000e-01,-1.831054687500000000e-01
8.058778047561645508e+00,-4.192246913909912109e+00,-4.084507942199707031e+00,7.924807548522949219e+00,3.204345703125000000e-01,7.629394531250000000e-02,-3.204345703125000000e-01
8.072854518890380859e+00,-4.158728122711181641e+00,-4.103661537170410156e+00,7.908048152923583984e+00,3.051757812500000000e-01,7.629394531250000000e-02,-3.204345703125000000e-01
8.082860469818115234e+00,-4.139574527740479404e+00,-4.103661537170410156e+00,7.886500358581542969e+00,-3.051757812500000000e-02,7.629394531250000000e-02,-1.907348632812500000e-01
8.097774982452392578e+00,-4.139574527740479404e+00,-4.103661537170410156e+00,7.908048152923583984e+00,-3.051757812500000000e-02,-2.670288085937500000e-01,1.602172851562500000e-01
8.109570980072021484e+00,-4.220977306365966797e+00,-4.077325344085693359e+00,7.783549785614013672e+00,3.280639648437500000e-01,1.144409179687500000e-01,1.602172851562500000e-01
8.121515035629272461e+00,-4.220977306365966797e+00,-4.062960147857666016e+00,7.922413349151611328e+00,3.280639648437500000e-01,-2.441406250000000000e-01,1.602172851562500000e-01
8.136604070663452148e+00,-4.218583106994628906e+00,-4.062960147857666016e+00,7.826645374298095703e+00,-3.051757812500000000e-02,3.585815429687500000e-01,5.416870117187500000e-01
8.148818492889404297e+00,-4.216188907623291016e+00,-4.062960147857666016e+00,7.886500358581542969e+00,-3.051757812500000000e-02,-2.441406250000000000e-01,5.416870117187500000e-01
8.160816192626953125e+00,-4.218583106994628906e+00,-4.031835556030273438e+00,7.862558364868164062e+00,4.501342773437500000e-01,-3.280639648437500000e-01,3.356933593750000000e-01
8.174813508987426758e+00,-4.177881717681884766e+00,-3.993528366088867188e+00,7.886500358581542969e+00,4.501342773437500000e-01,-7.781982421875000000e-01,-4.501342773437500000e-01
8.187529563903808594e+00,-4.237736701965332031e+00,-3.993528366088867188e+00,7.869740962982177734e+00,3.890991210937500000e-01,-8.010864257812500000e-01,-4.501342773437500000e-01
8.199680805206298828e+00,-4.194641113281250000e+00,-4.074931144714356357e+00,7.941566944122313565e+00,3.890991210937500000e-01,-8.010864257812500000e-01,-4.577636718750000000e-02
8.214808702468872070e+00,-4.194641113281250000e+00,-4.074931144714356357e+00,7.941566944122313565e+00,2.517700195312500000e-01,-4.043579101562500000e-01,-1.525878906250000000e-02
8.226846933364868164e+00,-4.106055736541748047e+00,-4.062960147857666016e+00,7.941566944122313565e+00,4.272460937500000000e-01,-4.043579101562500000e-01,6.103515625000000000e-02
8.239161491394042969e+00,-4.106055736541748047e+00,-4.034229755401611328e+00,7.917624950408934659e+00,3.738403320312500000e-01,-6.332397460937500000e-01,1.602172851562500000e-01
8.254399061203002930e+00,-4.197035312652587891e+00,-4.062960147857666016e+00,7.908048152923583984e+00,3.738403320312500000e-01,-6.332397460937500000e-01,1.678466796875000000e-01
8.266058444976806641e+00,-4.197035312652587891e+00,-4.132391929626464844e+00,7.831433773040771484e+00,3.738403320312500000e-01,-4.501342773437500000e-01,1.678466796875000000e-01
8.276919364929199219e+00,-4.120420932769775391e+00,-4.132391929626464844e+00,7.831433773040771484e+00,3.738403320312500000e-01,-2.593994140625000000e-01,9.918212890625000000e-02
8.292574167251586914e+00,-4.118026733398437500e+00,-4.041412353515625000e+00,7.953537940979003906e+00,3.738403320312500000e-01,-1.754760742187500000e-01,9.918212890625000000e-02
8.308688640594482422e+00,-4.118026733398437500e+00,-4.041412353515625000e+00,7.996633529663085938e+00,2.059936523437500000e-01,-1.754760742187500000e-01,1.983642578125000000e-01
8.320647478103637695e+00,-4.158728122711181641e+00,-4.043806552886962891e+00,7.996633529663085938e+00,2.059936523437500000e-01,-1.754760742187500000e-01,1.983642578125000000e-01
8.331441164016723633e+00,-4.209006309509277344e+00,-4.103661537170410156e+00,7.994239330291748047e+00,3.662109375000000000e-01,2.593994140625000000e-01,1.907348632812500000e-01
8.343883275985717773e+00,-4.209006309509277344e+00,-4.103661537170410156e+00,7.994239330291748047e+00,3.662109375000000000e-01,2.593994140625000000e-01,-2.136230468750000000e-01
8.359831333160400391e+00,-4.161122322082520419e+00,-4.048594951629638672e+00,7.934384346008300781e+00,1.831054687500000000e-01,2.441406250000000000e-01,-2.136230468750000000e-01
8.370365619659423828e+00,-4.161122322082520419e+00,-4.048594951629638672e+00,7.958326339721679688e+00,1.831054687500000000e-01,-4.425048828125000000e-01,-1.068115234375000000e-01
8.383354902267456055e+00,-4.185064315795898438e+00,-4.058171749114990234e+00,7.936778545379638672e+00,9.155273437500000000e-02,-4.425048828125000000e-01,6.866455078125000000e-02
8.400215625762939453e+00,-4.185064315795898438e+00,-4.058171749114990234e+00,7.958326339721679688e+00,1.296997070312500000e-01,-4.348754882812500000e-01,2.365112304687500000e-01
8.410968780517578125e+00,-4.271255970001220703e+00,-4.058171749114990234e+00,7.936778545379638672e+00,1.296997070312500000e-01,7.629394531250000000e-02,2.670288085937500000e-01
8.421705245971679688e+00,-4.213794708251953125e+00,-4.082113742828369141e+00,7.874529361724852627e+00,5.569458007812500000e-01,-4.348754882812500000e-01,2.670288085937500000e-01
8.438918590545654297e+00,-4.264073371887207031e+00,-4.082113742828369141e+00,7.795520782470703125e+00,8.926391601562500000e-01,-5.340576171875000000e-01,2.212524414062500000e-01
8.448838472366333008e+00,-4.213794708251953125e+00,-4.060565948486328125e+00,7.874529361724852627e+00,5.569458007812500000e-01,-6.408691406250000000e-01,2.212524414062500000e-01
8.460374355316162109e+00,-4.264073371887207031e+00,-4.015076160430908203e+00,7.795520782470703125e+00,1.373291015625000000e-01,-6.408691406250000000e-01,4.425048828125000000e-01
8.478370428085327148e+00,-4.204217910766601562e+00,-4.060565948486328125e+00,7.931990146636962891e+00,1.373291015625000000e-01,-7.171630859375000000e-01,4.425048828125000000e-01
8.489176273345947266e+00,-4.091690540313720703e+00,-4.012681961059570312e+00,7.841010570526123047e+00,2.059936523437500000e-01,-3.967285156250000000e-01,3.662109375000000000e-01
8.499915838241577148e+00,-4.091690540313720703e+00,-4.110844135284423828e+00,7.941566944122313565e+00,3.051757812500000000e-01,-3.967285156250000000e-01,0.000000000000000000e+00
8.517208337783813477e+00,-4.153939723968505859e+00,-4.062960147857666016e+00,7.924807548522949219e+00,3.051757812500000000e-01,-3.967285156250000000e-01,-5.340576171875000000e-02
8.528579711914062500e+00,-4.194641113281250000e+00,-4.110844135284423828e+00,7.924807548522949219e+00,2.136230468750000000e-01,-3.967285156250000000e-01,0.000000000000000000e+00
8.538054704666137695e+00,-4.225765705108642578e+00,-4.062960147857666016e+00,7.874529361724852627e+00,2.136230468750000000e-01,-2.288818359375000000e-02,-2.136230468750000000e-01
8.556016206741333008e+00,-4.225765705108642578e+00,-4.125209331512451172e+00,7.874529361724852627e+00,2.136230468750000000e-01,-4.348754882812500000e-01,-3.051757812500000000e-02
8.567008018493652344e+00,-4.201823711395263672e+00,-4.125209331512451172e+00,7.778761386871337891e+00,1.373291015625000000e-01,-3.433227539062500000e-01,-3.051757812500000000e-02
8.577806711196899414e+00,-4.201823711395263672e+00,-4.125209331512451172e+00,7.778761386871337891e+00,1.373291015625000000e-01,-4.348754882812500000e-01,-3.051757812500000000e-02
8.595257520675659180e+00,-4.201823711395263672e+00,-4.139574527740479404e+00,7.778761386871337891e+00,3.662109375000000000e-01,-5.264282226562500000e-01,9.155273437500000000e-02
8.606119394302368164e+00,-4.137180328369140625e+00,-4.125209331512451172e+00,7.924807548522949219e+00,3.662109375000000000e-01,-5.264282226562500000e-01,3.051757812500000000e-02
8.620082139968872070e+00,-4.053383350372314453e+00,-4.139574527740479404e+00,7.924807548522949219e+00,2.441406250000000000e-01,-7.934570312500000000e-01,6.103515625000000000e-02
8.632031917572021484e+00,-4.053383350372314453e+00,-4.106055736541748047e+00,7.953537940979003906e+00,2.288818359375000000e-01,-2.441406250000000000e-01,3.051757812500000000e-02
8.643912076950073242e+00,-4.309563159942626953e+00,-4.106055736541748047e+00,7.905653953552246094e+00,2.441406250000000000e-01,-1.907348632812500000e-01,-2.670288085937500000e-01
8.658228635787963867e+00,-4.309563159942626953e+00,-4.082113742828369141e+00,7.900865554809570312e+00,5.340576171875000000e-01,-1.907348632812500000e-01,-5.950927734375000000e-01
8.669799566268920898e+00,-4.086902141571044922e+00,-4.082113742828369141e+00,7.900865554809570312e+00,5.340576171875000000e-01,-1.907348632812500000e-01,-5.950927734375000000e-01
8.682919979095458984e+00,-4.086902141571044922e+00,-4.089296340942382812e+00,7.900865554809570312e+00,9.155273437500000000e-02,-1.907348632812500000e-01,-7.629394531250000000e-02
8.697665214538574219e+00,-4.192246913909912109e+00,-4.089296340942382812e+00,7.831433773040771484e+00,9.155273437500000000e-02,1.525878906250000000e-02,1.525878906250000000e-02
8.709674119949340820e+00,-4.247313976287841797e+00,-4.089296340942382812e+00,7.807491779327392578e+00,2.059936523437500000e-01,1.525878906250000000e-02,-7.629394531250000000e-02
8.722267389297485352e+00,-4.192246913909912109e+00,-4.077325344085693359e+00,7.831433773040771484e+00,7.247924804687500000e-01,-9.155273437500000000e-02,-1.754760742187500000e-01
8.736344814300537109e+00,-4.120420932769775391e+00,-4.106055736541748047e+00,7.888894557952880859e+00,7.247924804687500000e-01,-4.806518554687500000e-01,-1.754760742187500000e-01
8.748341321945190430e+00,-4.120420932769775391e+00,-4.106055736541748047e+00,7.905653953552246094e+00,-4.577636718750000000e-02,-4.806518554687500000e-01,0.000000000000000000e+00
8.761612176895141602e+00,-4.209006309509277344e+00,-4.106055736541748047e+00,7.979874134063720703e+00,-4.577636718750000000e-02,2.059936523437500000e-01,1.449584960937500000e-01
8.775100946426391602e+00,-4.209006309509277344e+00,-4.074931144714356357e+00,7.994239330291748047e+00,1.449584960937500000e-01,2.059936523437500000e-01,0.000000000000000000e+00
8.787200689315795898e+00,-4.201823711395263672e+00,-4.053383350372314453e+00,7.979874134063720703e+00,6.332397460937500000e-01,-6.027221679687500000e-01,-3.051757812500000000e-01
8.799716949462890625e+00,-4.156333923339843750e+00,-4.050989151000976562e+00,7.953537940979003906e+00,6.332397460937500000e-01,-6.027221679687500000e-01,-3.738403320312500000e-01
8.814558267593383789e+00,-4.156333923339843750e+00,-4.039018154144287109e+00,7.953537940979003906e+00,3.356933593750000000e-01,-2.593994140625000000e-01,-3.051757812500000000e-01
8.826502323150634766e+00,-4.156333923339843750e+00,-4.039018154144287109e+00,7.953537940979003906e+00,1.907348632812500000e-01,-1.373291015625000000e-01,-3.814697265625000000e-02
8.838643789291381836e+00,-4.199429512023925781e+00,-4.086902141571044922e+00,7.967903137207031250e+00,1.907348632812500000e-01,-1.373291015625000000e-01,-3.814697265625000000e-02
8.853544712066650391e+00,-4.199429512023925781e+00,-4.086902141571044922e+00,7.967903137207031250e+00,1.907348632812500000e-01,-2.975463867187500000e-01,-1.068115234375000000e-01
8.866360187530517578e+00,-4.077325344085693359e+00,-4.072536945343017578e+00,7.967903137207031250e+00,1.678466796875000000e-01,-5.035400390625000000e-01,-1.068115234375000000e-01
8.878526210784912109e+00,-4.043806552886962891e+00,-4.072536945343017578e+00,7.948749542236328125e+00,3.814697265625000000e-02,-5.035400390625000000e-01,1.831054687500000000e-01
8.893022775650024414e+00,-4.043806552886962891e+00,-4.094084739685058594e+00,7.931990146636962891e+00,1.678466796875000000e-01,-4.348754882812500000e-01,2.593994140625000000e-01
8.904880046844482422e+00,-4.185064315795898438e+00,-4.094084739685058594e+00,7.948749542236328125e+00,2.822875976562500000e-01,-4.577636718750000000e-02,2.593994140625000000e-01
8.917853593826293945e+00,-4.189852714538574219e+00,-4.110844135284423828e+00,8.006210327148437500e+00,2.822875976562500000e-01,9.155273437500000000e-02,1.831054687500000000e-01
8.931605577468872070e+00,-4.189852714538574219e+00,-4.086902141571044922e+00,8.006210327148437500e+00,2.136230468750000000e-01,9.155273437500000000e-02,-8.392333984375000000e-02
8.944158554077148438e+00,-4.189852714538574219e+00,-4.086902141571044922e+00,7.991845130920410156e+00,2.136230468750000000e-01,9.155273437500000000e-02,-1.373291015625000000e-01
8.956478357315063477e+00,-4.144362926483154297e+00,-4.027047157287597656e+00,7.958326339721679688e+00,2.136230468750000000e-01,-1.220703125000000000e-01,-2.136230468750000000e-01
8.970440387725830078e+00,-4.082113742828369141e+00,-4.027047157287597656e+00,7.991845130920410156e+00,9.155273437500000000e-02,-9.689331054687500000e-01,-1.373291015625000000e-01
8.982068777084350586e+00,-4.144362926483154297e+00,-4.060565948486328125e+00,7.958326339721679688e+00,9.155273437500000000e-02,-1.220703125000000000e-01,-2.136230468750000000e-01
8.997396469116210938e+00,-4.134786128997802734e+00,-4.086902141571044922e+00,7.953537940979003906e+00,1.525878906250000000e-01,-4.882812500000000000e-01,-2.517700195312500000e-01
9.009693384170532227e+00,-4.259284973144531250e+00,-4.086902141571044922e+00,7.939172744750976562e+00,2.975463867187500000e-01,-2.136230468750000000e-01,-4.501342773437500000e-01
9.021851778030395508e+00,-4.134786128997802734e+00,-4.029441356658936435e+00,7.939172744750976562e+00,2.975463867187500000e-01,-4.882812500000000000e-01,-4.501342773437500000e-01
9.039268016815185547e+00,-4.134786128997802734e+00,-4.029441356658936435e+00,7.939172744750976562e+00,-1.068115234375000000e-01,-2.136230468750000000e-01,-4.119873046875000000e-01
9.049785375595092773e+00,-4.101267337799072266e+00,-4.000710964202880859e+00,8.022970199584960938e+00,-2.593994140625000000e-01,-1.754760742187500000e-01,4.577636718750000000e-02
9.061593770980834961e+00,-4.134786128997802734e+00,-4.043806552886962891e+00,7.915230751037597656e+00,-2.593994140625000000e-01,-1.296997070312500000e-01,4.577636718750000000e-02
9.077975749969482422e+00,-4.292803764343261719e+00,-4.043806552886962891e+00,7.924807548522949219e+00,3.585815429687500000e-01,-1.754760742187500000e-01,-3.738403320312500000e-01
9.088443279266357422e+00,-4.292803764343261719e+00,-4.043806552886962891e+00,7.924807548522949219e+00,3.585815429687500000e-01,2.136230468750000000e-01,-3.738403320312500000e-01
9.099037647247314453e+00,-4.216188907623291016e+00,-4.050989151000976562e+00,7.924807548522949219e+00,3.128051757812500000e-01,-1.831054687500000000e-01,-2.365112304687500000e-01
9.117045164108276367e+00,-4.216188907623291016e+00,-4.043806552886962891e+00,7.850587368011474609e+00,1.220703125000000000e-01,2.136230468750000000e-01,-1.831054687500000000e-01
9.127756595611572266e+00,-4.225765705108642578e+00,-4.039018154144287109e+00,7.850587368011474609e+00,3.128051757812500000e-01,-1.831054687500000000e-01,-1.831054687500000000e-01
9.138697862625122070e+00,-4.225765705108642578e+00,-4.039018154144287109e+00,7.872135162353515625e+00,1.831054687500000000e-01,5.340576171875000000e-02,-1.449584960937500000e-01
9.156149864196777344e+00,-4.225765705108642578e+00,-4.074931144714356357e+00,7.872135162353515625e+00,3.433227539062500000e-01,-6.866455078125000000e-02,-1.373291015625000000e-01
9.166747570037841797e+00,-4.151545524597167969e+00,-4.074931144714356357e+00,7.960720539093017578e+00,3.128051757812500000e-01,-6.866455078125000000e-02,-1.373291015625000000e-01
9.177700519561767578e+00,-4.158728122711181641e+00,-4.110844135284423828e+00,7.960720539093017578e+00,4.043579101562500000e-01,-4.501342773437500000e-01,-1.373291015625000000e-01
9.195602178573608398e+00,-4.151545524597167969e+00,-4.062960147857666016e+00,7.996633529663085938e+00,3.128051757812500000e-01,-8.773803710937500000e-01,-1.220703125000000000e-01
9.206185340881347656e+00,-4.158728122711181641e+00,-4.082113742828369141e+00,7.996633529663085938e+00,2.517700195312500000e-01,-4.501342773437500000e-01,-7.629394531250000000e-02
9.220089197158813477e+00,-4.180275917053222656e+00,-4.082113742828369141e+00,7.886500358581542969e+00,2.517700195312500000e-01,-8.010864257812500000e-01,-2.288818359375000000e-02
9.233788013458251953e+00,-4.242525577545166016e+00,-4.082113742828369141e+00,7.872135162353515625e+00,5.264282226562500000e-01,-3.738403320312500000e-01,1.525878906250000000e-01
9.243473291397094727e+00,-4.180275917053222656e+00,-4.115632534027099609e+00,7.886500358581542969e+00,5.264282226562500000e-01,-6.942749023437500000e-01,1.525878906250000000e-01
9.258596897125244141e+00,-4.139574527740479404e+00,-4.086902141571044922e+00,7.872135162353515625e+00,4.806518554687500000e-01,-1.449584960937500000e-01,-4.348754882812500000e-01
9.270691394805908203e+00,-4.139574527740479404e+00,-4.086902141571044922e+00,7.967903137207031250e+00,2.746582031250000000e-01,-1.449584960937500000e-01,-4.348754882812500000e-01
9.282335042953491211e+00,-4.230554103851318359e+00,-4.086902141571044922e+00,7.869740962982177734e+00,2.746582031250000000e-01,-3.051757812500000000e-02,-4.348754882812500000e-01
9.297903060913085938e+00,-4.261679172515869141e+00,-4.118026733398437500e+00,7.845798969268798828e+00,3.356933593750000000e-01,-3.051757812500000000e-02,-7.019042968750000000e-01
9.309607505798339844e+00,-4.261679172515869141e+00,-4.118026733398437500e+00,7.845798969268798828e+00,3.356933593750000000e-01,-2.288818359375000000e-01,-7.019042968750000000e-01
9.321848392486572266e+00,-4.173093318939208984e+00,-4.022258758544921875e+00,7.860164165496826172e+00,3.280639648437500000e-01,-2.288818359375000000e-01,-5.874633789062500000e-01
9.336369276046752930e+00,-4.173093318939208984e+00,-4.022258758544921875e+00,7.939172744750976562e+00,3.280639648437500000e-01,-6.103515625000000000e-02,-3.509521484375000000e-01
9.348777294158935547e+00,-4.168304920196533203e+00,-4.022258758544921875e+00,7.939172744750976562e+00,2.059936523437500000e-01,3.433227539062500000e-01,-3.509521484375000000e-01
9.361131906509399414e+00,-4.168304920196533203e+00,-4.050989151000976562e+00,7.922413349151611328e+00,2.059936523437500000e-01,-6.103515625000000000e-02,-3.509521484375000000e-01
9.375535964965820312e+00,-4.132391929626464844e+00,-4.050989151000976562e+00,7.912836551666259766e+00,2.059936523437500000e-01,-9.918212890625000000e-01,5.340576171875000000e-01
9.387467384338378906e+00,-4.132391929626464844e+00,-4.058171749114990234e+00,7.912836551666259766e+00,1.373291015625000000e-01,-9.918212890625000000e-01,6.484985351562500000e-01
9.400230646133422852e+00,-4.134786128997802734e+00,-4.065354347229003906e+00,7.912836551666259766e+00,3.662109375000000000e-01,-3.814697265625000000e-02,6.484985351562500000e-01
9.414685726165771484e+00,-4.153939723968505859e+00,-4.096478939056396484e+00,7.795520782470703125e+00,4.882812500000000000e-01,-3.814697265625000000e-02,2.059936523437500000e-01
9.427479743957519531e+00,-4.153939723968505859e+00,-4.065354347229003906e+00,7.795520782470703125e+00,4.882812500000000000e-01,-3.509521484375000000e-01,2.059936523437500000e-01
9.441152095794677734e+00,-4.153939723968505859e+00,-4.127603530883789062e+00,7.802703380584716797e+00,4.425048828125000000e-01,-3.509521484375000000e-01,9.918212890625000000e-02
9.454035043716430664e+00,-4.218583106994628906e+00,-4.065354347229003906e+00,7.864952564239501953e+00,4.425048828125000000e-01,-4.882812500000000000e-01,9.918212890625000000e-02
9.465898990631103516e+00,-4.218583106994628906e+00,-4.065354347229003906e+00,7.872135162353515625e+00,4.425048828125000000e-01,-4.882812500000000000e-01,6.866455078125000000e-02
9.481471776962280273e+00,-4.180275917053222656e+00,-4.065354347229003906e+00,8.025363922119140625e+00,-2.288818359375000000e-02,-4.882812500000000000e-01,-6.103515625000000000e-02
9.492573976516723633e+00,-4.180275917053222656e+00,-4.060565948486328125e+00,8.025363922119140625e+00,-2.288818359375000000e-02,7.629394531250000000e-02,6.866455078125000000e-02
9.504438877105712891e+00,-4.201823711395263672e+00,-4.060565948486328125e+00,8.006210327148437500e+00,9.155273437500000000e-02,2.136230468750000000e-01,-6.103515625000000000e-02
9.520414590835571289e+00,-4.201823711395263672e+00,-4.050989151000976562e+00,8.006210327148437500e+00,2.517700195312500000e-01,2.136230468750000000e-01,-2.746582031250000000e-01
9.531515359878540039e+00,-4.199429512023925781e+00,-4.043806552886962891e+00,8.006210327148437500e+00,2.517700195312500000e-01,2.136230468750000000e-01,-2.746582031250000000e-01
9.543526172637939453e+00,-4.096478939056396484e+00,-4.043806552886962891e+00,7.960720539093017578e+00,2.517700195312500000e-01,-3.814697265625000000e-02,-2.975463867187500000e-01
9.559748888015747070e+00,-4.120420932769775391e+00,-4.089296340942382812e+00,7.948749542236328125e+00,4.577636718750000000e-01,-3.814697265625000000e-02,-1.754760742187500000e-01
9.570936918258666992e+00,-4.120420932769775391e+00,-4.101267337799072266e+00,7.934384346008300781e+00,4.577636718750000000e-01,-3.280639648437500000e-01,-2.822875976562500000e-01
9.585017919540405273e+00,-4.120420932769775391e+00,-4.101267337799072266e+00,7.915230751037597656e+00,4.272460937500000000e-01,-3.280639648437500000e-01,-1.754760742187500000e-01
9.600467681884765625e+00,-4.120420932769775391e+00,-4.101267337799072266e+00,7.915230751037597656e+00,2.212524414062500000e-01,-3.280639648437500000e-01,-1.602172851562500000e-01
9.611209392547607422e+00,-4.206612110137940341e+00,-4.060565948486328125e+00,7.893682956695556641e+00,2.212524414062500000e-01,-3.128051757812500000e-01,-3.814697265625000000e-02
9.625624895095825195e+00,-4.225765705108642578e+00,-4.060565948486328125e+00,7.893682956695556641e+00,2.212524414062500000e-01,1.296997070312500000e-01,1.373291015625000000e-01
9.638807773590087891e+00,-4.247313976287841797e+00,-4.060565948486328125e+00,7.862558364868164062e+00,2.212524414062500000e-01,1.373291015625000000e-01,1.373291015625000000e-01
9.648704290390014648e+00,-4.280832767486572266e+00,-4.089296340942382812e+00,7.915230751037597656e+00,2.670288085937500000e-01,1.373291015625000000e-01,-1.373291015625000000e-01
9.663502931594848633e+00,-4.280832767486572266e+00,-4.041412353515625000e+00,7.915230751037597656e+00,2.822875976562500000e-01,1.296997070312500000e-01,-2.899169921875000000e-01
9.678398370742797852e+00,-4.232948303222656250e+00,-4.065354347229003906e+00,7.996633529663085938e+00,2.670288085937500000e-01,-7.629394531250000000e-03,-3.967285156250000000e-01
9.688158988952636719e+00,-4.232948303222656250e+00,-4.062960147857666016e+00,7.996633529663085938e+00,1.678466796875000000e-01,-1.220703125000000000e-01,-3.967285156250000000e-01
9.703167915344238281e+00,-4.168304920196533203e+00,-4.065354347229003906e+00,8.030152320861816406e+00,1.296997070312500000e-01,-7.629394531250000000e-03,6.103515625000000000e-02
9.717563390731811523e+00,-4.086902141571044922e+00,-4.062960147857666016e+00,8.049305915832519531e+00,-3.814697265625000000e-02,-1.220703125000000000e-01,1.144409179687500000e-01
9.729040145874023438e+00,-4.086902141571044922e+00,-4.034229755401611328e+00,8.049305915832519531e+00,-3.814697265625000000e-02,-3.051757812500000000e-01,6.866455078125000000e-02
9.742033481597900391e+00,-4.170699119567871094e+00,-4.034229755401611328e+00,7.855375766754150391e+00,-1.525878906250000000e-02,-3.051757812500000000e-01,6.866455078125000000e-02
9.755921840667724609e+00,-4.175487518310546875e+00,-4.034229755401611328e+00,7.855375766754150391e+00,3.509521484375000000e-01,-5.340576171875000000e-02,-1.449584960937500000e-01
9.769703388214111328e+00,-4.175487518310546875e+00,-4.027047157287597656e+00,7.929595947265625000e+00,3.509521484375000000e-01,5.340576171875000000e-01,-2.136230468750000000e-01
9.780668497085571289e+00,-4.268861770629882812e+00,-4.027047157287597656e+00,7.929595947265625000e+00,2.517700195312500000e-01,5.340576171875000000e-01,-2.136230468750000000e-01
9.795050144195556641e+00,-4.268861770629882812e+00,-4.027047157287597656e+00,7.833827972412109375e+00,2.517700195312500000e-01,5.340576171875000000e-01,-3.280639648437500000e-01
9.806982994079589844e+00,-4.252102375030517578e+00,-4.074931144714356357e+00,7.833827972412109375e+00,2.517700195312500000e-01,5.340576171875000000e-02,-3.280639648437500000e-01
9.820045709609985352e+00,-4.252102375030517578e+00,-4.043806552886962891e+00,7.778761386871337891e+00,3.128051757812500000e-01,5.340576171875000000e-02,6.027221679687500000e-01
9.834316968917846680e+00,-4.216188907623291016e+00,-4.074931144714356357e+00,7.797914981842041016e+00,3.128051757812500000e-01,1.144409179687500000e-01,6.027221679687500000e-01
9.846655607223510742e+00,-4.216188907623291016e+00,-4.144362926483154297e+00,7.797914981842041016e+00,3.662109375000000000e-01,1.144409179687500000e-01,-1.449584960937500000e-01
9.858427047729492188e+00,-4.192246913909912109e+00,-4.144362926483154297e+00,7.886500358581542969e+00,3.662109375000000000e-01,-3.356933593750000000e-01,-1.449584960937500000e-01
9.870952129364013672e+00,-4.192246913909912109e+00,-4.120420932769775391e+00,7.886500358581542969e+00,2.746582031250000000e-01,-3.356933593750000000e-01,9.155273437500000000e-02
9.886054039001464844e+00,-4.192246913909912109e+00,-4.072536945343017578e+00,7.979874134063720703e+00,2.746582031250000000e-01,-2.517700195312500000e-01,4.119873046875000000e-01
9.898104190826416016e+00,-4.146757125854492188e+00,-4.072536945343017578e+00,8.006210327148437500e+00,2.975463867187500000e-01,-1.754760742187500000e-01,3.967285156250000000e-01
9.909183740615844727e+00,-4.146757125854492188e+00,-4.096478939056396484e+00,8.006210327148437500e+00,3.433227539062500000e-01,-1.373291015625000000e-01,4.119873046875000000e-01
9.925041675567626953e+00,-4.189852714538574219e+00,-4.096478939056396484e+00,7.936778545379638672e+00,4.119873046875000000e-01,-1.754760742187500000e-01,3.967285156250000000e-01
9.936296701431274414e+00,-4.189852714538574219e+00,-4.022258758544921875e+00,7.931990146636962891e+00,4.119873046875000000e-01,-9.460449218750000000e-01,3.509521484375000000e-01
9.948817253112792969e+00,-4.151545524597167969e+00,-4.022258758544921875e+00,7.931990146636962891e+00,1.907348632812500000e-01,-9.460449218750000000e-01,1.983642578125000000e-01
9.964132308959960938e+00,-4.151545524597167969e+00,-4.022258758544921875e+00,7.931990146636962891e+00,1.907348632812500000e-01,-6.332397460937500000e-01,9.155273437500000000e-02
9.976159572601318359e+00,-4.151545524597167969e+00,-4.065354347229003906e+00,7.891288757324218750e+00,3.433227539062500000e-01,-5.798339843750000000e-01,-4.577636718750000000e-02
9.987798929214477539e+00,-4.094084739685058594e+00,-4.065354347229003906e+00,7.891288757324218750e+00,3.433227539062500000e-01,-5.950927734375000000e-01,-2.441406250000000000e-01
1.000247025489807129e+01,-4.094084739685058594e+00,-4.062960147857666016e+00,7.867346763610839844e+00,3.433227539062500000e-01,-5.798339843750000000e-01,-2.441406250000000000e-01
1.001509165763854980e+01,-4.036623954772949219e+00,-4.062960147857666016e+00,7.979874134063720703e+00,3.280639648437500000e-01,-4.501342773437500000e-01,-1.296997070312500000e-01
1.002972483634948730e+01,-4.180275917053222656e+00,-4.067748546600341797e+00,7.864952564239501953e+00,4.882812500000000000e-01,-3.814697265625000000e-01,1.907348632812500000e-01
1.004139161109924316e+01,-4.182670116424560547e+00,-4.115632534027099609e+00,7.905653953552246094e+00,3.814697265625000000e-01,-3.814697265625000000e-01,1.907348632812500000e-01
1.005320215225219727e+01,-4.211400508880615234e+00,-4.115632534027099609e+00,7.905653953552246094e+00,3.814697265625000000e-01,-3.509521484375000000e-01,-1.220703125000000000e-01
1.006600785255432129e+01,-4.211400508880615234e+00,-4.079719543457031250e+00,7.917624950408934659e+00,3.280639648437500000e-01,-1.678466796875000000e-01,-1.220703125000000000e-01
1.008171129226684570e+01,-4.228159904479980469e+00,-4.079719543457031250e+00,7.917624950408934659e+00,3.280639648437500000e-01,-2.365112304687500000e-01,3.662109375000000000e-01
1.009269213676452637e+01,-4.228159904479980469e+00,-4.096478939056396484e+00,7.809885978698729581e+00,4.043579101562500000e-01,-1.678466796875000000e-01,3.662109375000000000e-01
1.010556316375732422e+01,-4.247313976287841797e+00,-4.096478939056396484e+00,7.809885978698729581e+00,4.043579101562500000e-01,-2.365112304687500000e-01,-1.373291015625000000e-01
1.012043213844299316e+01,-4.271255970001220703e+00,-4.022258758544921875e+00,7.857769966125488281e+00,3.814697265625000000e-01,-3.585815429687500000e-01,-1.373291015625000000e-01
1.013228678703308105e+01,-4.271255970001220703e+00,-4.022258758544921875e+00,7.857769966125488281e+00,3.814697265625000000e-01,-3.585815429687500000e-01,-2.212524414062500000e-01
1.014400410652160645e+01,-4.271255970001220703e+00,-4.086902141571044922e+00,7.857769966125488281e+00,-3.814697265625000000e-02,-3.585815429687500000e-01,1.525878906250000000e-02
1.016037249565124512e+01,-4.283226966857910156e+00,-4.108449935913085938e+00,7.841010570526123047e+00,5.569458007812500000e-01,-3.280639648437500000e-01,-1.602172851562500000e-01
1.017007732391357422e+01,-4.151545524597167969e+00,-4.086902141571044922e+00,7.965508937835693359e+00,4.806518554687500000e-01,-4.348754882812500000e-01,-1.602172851562500000e-01
1.018236255645751953e+01,-4.170699119567871094e+00,-4.113238334655761719e+00,7.929595947265625000e+00,4.806518554687500000e-01,-4.196166992187500000e-01,-1.602172851562500000e-01
1.020045185089111328e+01,-4.141968727111816406e+00,-4.036623954772949219e+00,7.929595947265625000e+00,3.051757812500000000e-01,-6.179809570312500000e-01,-1.449584960937500000e-01
1.021149230003356934e+01,-4.170699119567871094e+00,-4.115632534027099609e+00,7.769184589385986328e+00,3.051757812500000000e-01,-4.196166992187500000e-01,-1.449584960937500000e-01
1.022270107269287109e+01,-4.204217910766601562e+00,-4.027047157287597656e+00,7.769184589385986328e+00,5.416870117187500000e-01,-1.068115234375000000e-01,-1.525878906250000000e-02
1.023877596855163574e+01,-4.204217910766601562e+00,-4.072536945343017578e+00,7.896077156066894531e+00,5.416870117187500000e-01,1.296997070312500000e-01,-1.525878906250000000e-02
1.024907374382019043e+01,-4.204217910766601562e+00,-4.072536945343017578e+00,7.898471355438232422e+00,2.212524414062500000e-01,3.051757812500000000e-02,7.629394531250000000e-03
1.026147842407226562e+01,-4.187458515167236328e+00,-4.072536945343017578e+00,7.927201747894287109e+00,4.577636718750000000e-02,6.027221679687500000e-01,6.103515625000000000e-02
1.027811431884765625e+01,-4.187458515167236328e+00,-4.106055736541748047e+00,7.927201747894287109e+00,2.212524414062500000e-01,3.051757812500000000e-02,8.392333984375000000e-02
1.028831148147583008e+01,-4.187458515167236328e+00,-4.082113742828369141e+00,7.896077156066894531e+00,3.433227539062500000e-01,-2.212524414062500000e-01,8.392333984375000000e-02
1.030355739593505859e+01,-4.118026733398437500e+00,-4.144362926483154297e+00,7.896077156066894531e+00,3.433227539062500000e-01,-2.212524414062500000e-01,-7.629394531250000000e-02
1.031678414344787598e+01,-4.213794708251953125e+00,-4.082113742828369141e+00,7.941566944122313565e+00,2.365112304687500000e-01,-6.103515625000000000e-02,-7.629394531250000000e-02
1.032653427124023438e+01,-4.118026733398437500e+00,-4.144362926483154297e+00,8.027758598327636719e+00,2.365112304687500000e-01,6.866455078125000000e-02,-7.629394531250000000e-02
1.034152960777282715e+01,-4.180275917053222656e+00,-4.060565948486328125e+00,8.027758598327636719e+00,1.373291015625000000e-01,6.866455078125000000e-02,0.000000000000000000e+00
1.035590863227844238e+01,-4.180275917053222656e+00,-4.060565948486328125e+00,7.888894557952880859e+00,6.027221679687500000e-01,-1.144409179687500000e-01,0.000000000000000000e+00
1.036659097671508789e+01,-4.187458515167236328e+00,-4.060565948486328125e+00,7.860164165496826172e+00,4.196166992187500000e-01,-1.144409179687500000e-01,0.000000000000000000e+00
1.038066768646240234e+01,-4.187458515167236328e+00,-4.060565948486328125e+00,7.860164165496826172e+00,4.196166992187500000e-01,-2.899169921875000000e-01,2.288818359375000000e-02
1.039521408081054688e+01,-4.187458515167236328e+00,-4.065354347229003906e+00,7.905653953552246094e+00,4.196166992187500000e-01,-2.441406250000000000e-01,-1.373291015625000000e-01
1.040570378303527832e+01,-4.185064315795898438e+00,-4.060565948486328125e+00,7.972691535949707031e+00,1.602172851562500000e-01,-2.441406250000000000e-01,-3.433227539062500000e-01
1.042005801200866699e+01,-4.185064315795898438e+00,-4.065354347229003906e+00,7.955932140350341797e+00,3.814697265625000000e-02,-2.136230468750000000e-01,-3.433227539062500000e-01
1.043437647819519043e+01,-4.062960147857666016e+00,-4.027047157287597656e+00,7.972691535949707031e+00,7.629394531250000000e-03,-2.136230468750000000e-01,-2.746582031250000000e-01
1.044419026374816895e+01,-4.062960147857666016e+00,-4.070142745971679688e+00,7.955932140350341797e+00,3.814697265625000000e-02,-2.136230468750000000e-01,-6.103515625000000000e-02
1.046126127243041992e+01,-3.986345767974853516e+00,-4.070142745971679688e+00,7.977479934692382812e+00,4.882812500000000000e-01,-6.408691406250000000e-01,-6.103515625000000000e-02
1.047051572799682617e+01,-4.149151325225830078e+00,-4.110844135284423828e+00,7.965508937835693359e+00,4.882812500000000000e-01,-2.899169921875000000e-01,-6.103515625000000000e-02
1.048294591903686523e+01,-4.149151325225830078e+00,-4.110844135284423828e+00,7.965508937835693359e+00,5.111694335937500000e-01,-2.899169921875000000e-01,4.577636718750000000e-02
1.049842453002929688e+01,-4.206612110137940341e+00,-4.110844135284423828e+00,7.965508937835693359e+00,2.136230468750000000e-01,7.324218750000000000e-01,6.866455078125000000e-02
1.050993037223815918e+01,-4.216188907623291016e+00,-4.074931144714356357e+00,7.936778545379638672e+00,4.959106445312500000e-01,7.324218750000000000e-01,4.577636718750000000e-02
1.052142357826232910e+01,-4.206612110137940341e+00,-4.074931144714356357e+00,8.006210327148437500e+00,2.136230468750000000e-01,2.670288085937500000e-01,-4.577636718750000000e-02
1.053718161582946777e+01,-4.132391929626464844e+00,-4.091690540313720703e+00,8.020575523376464844e+00,1.983642578125000000e-01,-2.822875976562500000e-01,-1.449584960937500000e-01
1.054871726036071777e+01,-4.132391929626464844e+00,-4.091690540313720703e+00,8.020575523376464844e+00,1.983642578125000000e-01,9.155273437500000000e-02,-4.577636718750000000e-02
1.056383109092712402e+01,-4.132391929626464844e+00,-4.096478939056396484e+00,8.015787124633789062e+00,1.983642578125000000e-01,-6.332397460937500000e-01,-1.449584960937500000e-01
1.057546591758728027e+01,-4.125209331512451172e+00,-4.103661537170410156e+00,8.015787124633789062e+00,9.155273437500000000e-02,-7.324218750000000000e-01,1.831054687500000000e-01
1.058742570877075195e+01,-4.125209331512451172e+00,-4.127603530883789062e+00,7.953537940979003906e+00,9.155273437500000000e-02,-7.324218750000000000e-01,2.212524414062500000e-01
1.060311055183410645e+01,-4.189852714538574219e+00,-4.127603530883789062e+00,7.845798969268798828e+00,2.212524414062500000e-01,-1.449584960937500000e-01,3.051757812500000000e-01
1.061459779739379883e+01,-4.204217910766601562e+00,-4.127603530883789062e+00,7.845798969268798828e+00,5.416870117187500000e-01,2.212524414062500000e-01,2.212524414062500000e-01
1.062707638740539551e+01,-4.204217910766601562e+00,-4.096478939056396484e+00,7.896077156066894531e+00,5.416870117187500000e-01,-1.449584960937500000e-01,-1.068115234375000000e-01
1.064163374900817871e+01,-4.197035312652587891e+00,-4.089296340942382812e+00,7.994239330291748047e+00,4.196166992187500000e-01,-3.051757812500000000e-02,-1.068115234375000000e-01
1.065438318252563477e+01,-4.180275917053222656e+00,-4.074931144714356357e+00,7.994239330291748047e+00,4.196166992187500000e-01,-3.890991210937500000e-01,-2.441406250000000000e-01
1.066661739349365234e+01,-4.197035312652587891e+00,-4.074931144714356357e+00,7.994239330291748047e+00,2.441406250000000000e-01,-3.051757812500000000e-02,-2.441406250000000000e-01
1.068159699440002441e+01,-4.180275917053222656e+00,-4.046200752258300781e+00,7.979874134063720703e+00,2.441406250000000000e-01,1.678466796875000000e-01,-2.441406250000000000e-01
1.069308948516845703e+01,-4.163516521453857422e+00,-4.043806552886962891e+00,7.924807548522949219e+00,2.441406250000000000e-01,1.678466796875000000e-01,-3.433227539062500000e-01
1.070503950119018555e+01,-4.132391929626464844e+00,-3.981557369232177734e+00,7.946355342864990234e+00,2.365112304687500000e-01,-1.449584960937500000e-01,-2.212524414062500000e-01
1.072080254554748535e+01,-4.084507942199707031e+00,-4.043806552886962891e+00,7.946355342864990234e+00,2.365112304687500000e-01,-1.449584960937500000e-01,1.831054687500000000e-01
1.073194289207458496e+01,-4.132391929626464844e+00,-4.031835556030273438e+00,7.946355342864990234e+00,2.365112304687500000e-01,-6.713867187500000000e-01,1.831054687500000000e-01
1.074447083473205566e+01,-4.182670116424560547e+00,-4.072536945343017578e+00,7.946355342864990234e+00,2.288818359375000000e-02,-3.814697265625000000e-01,1.983642578125000000e-01
1.075988483428955078e+01,-4.182670116424560547e+00,-4.031835556030273438e+00,7.946355342864990234e+00,3.738403320312500000e-01,-4.043579101562500000e-01,-8.392333984375000000e-02
1.076988029479980469e+01,-4.141968727111816406e+00,-4.010287761688232422e+00,7.941566944122313565e+00,6.103515625000000000e-02,-4.043579101562500000e-01,2.746582031250000000e-01
1.078356218338012695e+01,-4.141968727111816406e+00,-4.010287761688232422e+00,7.955932140350341797e+00,2.441406250000000000e-01,-4.043579101562500000e-01,-2.746582031250000000e-01
1.079907345771789551e+01,-4.141968727111816406e+00,-4.029441356658936435e+00,7.955932140350341797e+00,2.441406250000000000e-01,-5.645751953125000000e-01,-1.983642578125000000e-01
1.080994987487792969e+01,-4.134786128997802734e+00,-4.029441356658936435e+00,7.970297336578369141e+00,2.441406250000000000e-01,-5.645751953125000000e-01,-1.983642578125000000e-01
1.082278776168823242e+01,-4.134786128997802734e+00,-4.029441356658936435e+00,7.970297336578369141e+00,2.975463867187500000e-01,-5.645751953125000000e-01,-9.918212890625000000e-02
1.083903217315673828e+01,-4.199429512023925781e+00,-4.058171749114990234e+00,7.922413349151611328e+00,2.975463867187500000e-01,-5.874633789062500000e-01,-9.918212890625000000e-02
1.084980130195617676e+01,-4.199429512023925781e+00,-4.058171749114990234e+00,7.922413349151611328e+00,2.975463867187500000e-01,-5.493164062500000000e-01,-9.918212890625000000e-02
1.086251378059387207e+01,-4.156333923339843750e+00,-4.091690540313720703e+00,7.946355342864990234e+00,2.593994140625000000e-01,-5.493164062500000000e-01,2.746582031250000000e-01
1.087763023376464844e+01,-4.077325344085693359e+00,-4.005499362945556641e+00,7.946355342864990234e+00,2.593994140625000000e-01,-1.525878906250000000e-02,3.128051757812500000e-01
1.088799929618835449e+01,-4.086902141571044922e+00,-4.046200752258300781e+00,7.941566944122313565e+00,3.814697265625000000e-01,0.000000000000000000e+00,2.746582031250000000e-01
1.090416407585144043e+01,-4.086902141571044922e+00,-4.046200752258300781e+00,7.941566944122313565e+00,3.814697265625000000e-01,1.449584960937500000e-01,-6.103515625000000000e-02
1.091732358932495117e+01,-4.199429512023925781e+00,-4.070142745971679688e+00,7.943961143493652344e+00,1.831054687500000000e-01,1.449584960937500000e-01,-6.103515625000000000e-02
1.092716836929321289e+01,-4.199429512023925781e+00,-4.113238334655761719e+00,7.943961143493652344e+00,1.831054687500000000e-01,2.288818359375000000e-02,2.288818359375000000e-02
1.094155168533325195e+01,-4.206612110137940341e+00,-4.070142745971679688e+00,7.845798969268798828e+00,4.196166992187500000e-01,-3.509521484375000000e-01,2.288818359375000000e-02
1.095598864555358887e+01,-4.180275917053222656e+00,-4.077325344085693359e+00,7.845798969268798828e+00,4.196166992187500000e-01,-5.187988281250000000e-01,2.288818359375000000e-02
1.096767973899841309e+01,-4.240131378173828125e+00,-4.077325344085693359e+00,7.936778545379638672e+00,-1.068115234375000000e-01,-3.890991210937500000e-01,2.288818359375000000e-02
1.098034882545471191e+01,-4.118026733398437500e+00,-4.077325344085693359e+00,7.948749542236328125e+00,-1.068115234375000000e-01,-3.890991210937500000e-01,1.831054687500000000e-01
1.099557685852050781e+01,-4.170699119567871094e+00,-4.072536945343017578e+00,7.948749542236328125e+00,1.525878906250000000e-01,-3.890991210937500000e-01,2.059936523437500000e-01
1.100669169425964355e+01,-4.127603530883789062e+00,-4.003105163574218750e+00,7.948749542236328125e+00,3.128051757812500000e-01,-3.890991210937500000e-01,2.059936523437500000e-01
1.102017211914062500e+01,-4.134786128997802734e+00,-4.003105163574218750e+00,7.941566944122313565e+00,3.128051757812500000e-01,-4.425048828125000000e-01,2.288818359375000000e-01
1.103263378143310547e+01,-4.134786128997802734e+00,-4.086902141571044922e+00,7.900865554809570312e+00,3.128051757812500000e-01,-4.425048828125000000e-01,1.373291015625000000e-01
1.104407882690429688e+01,-4.134786128997802734e+00,-4.086902141571044922e+00,7.896077156066894531e+00,2.059936523437500000e-01,-4.425048828125000000e-01,1.525878906250000000e-02
1.105930519104003906e+01,-4.134786128997802734e+00,-4.108449935913085938e+00,7.896077156066894531e+00,1.983642578125000000e-01,-4.348754882812500000e-01,1.525878906250000000e-02
1.106975650787353516e+01,-4.134786128997802734e+00,-4.039018154144287109e+00,7.893682956695556641e+00,2.288818359375000000e-02,6.103515625000000000e-02,7.629394531250000000e-02
1.108348703384399414e+01,-4.134786128997802734e+00,-4.103661537170410156e+00,7.910442352294921875e+00,1.983642578125000000e-01,-4.348754882812500000e-01,1.373291015625000000e-01
1.109777545928955078e+01,-4.201823711395263672e+00,-4.103661537170410156e+00,7.910442352294921875e+00,3.509521484375000000e-01,-6.866455078125000000e-02,1.373291015625000000e-01
1.110965728759765625e+01,-4.132391929626464844e+00,-4.103661537170410156e+00,7.910442352294921875e+00,4.196166992187500000e-01,-9.155273437500000000e-02,3.814697265625000000e-02
1.112153339385986328e+01,-4.132391929626464844e+00,-4.050989151000976562e+00,7.977479934692382812e+00,4.196166992187500000e-01,-9.155273437500000000e-02,3.814697265625000000e-02
1.113774323463439941e+01,-4.132391929626464844e+00,-4.043806552886962891e+00,7.920019149780273438e+00,9.155273437500000000e-02,-9.155273437500000000e-02,6.103515625000000000e-02
1.114863157272338867e+01,-4.141968727111816406e+00,-4.050989151000976562e+00,7.943961143493652344e+00,6.866455078125000000e-02,-7.629394531250000000e-03,8.392333984375000000e-02
1.116455960273742676e+01,-4.165910720825195312e+00,-4.067748546600341797e+00,7.924807548522949219e+00,9.155273437500000000e-02,-7.629394531250000000e-03,6.103515625000000000e-02
1.117583608627319336e+01,-4.165910720825195312e+00,-4.067748546600341797e+00,7.943961143493652344e+00,2.136230468750000000e-01,-1.525878906250000000e-02,-6.103515625000000000e-02
1.118836450576782227e+01,-4.204217910766601562e+00,-4.015076160430908203e+00,7.967903137207031250e+00,2.136230468750000000e-01,-1.983642578125000000e-01,-6.103515625000000000e-02
1.120274138450622559e+01,-4.096478939056396484e+00,-4.015076160430908203e+00,7.967903137207031250e+00,2.136230468750000000e-01,-2.517700195312500000e-01,2.975463867187500000e-01
1.121410727500915527e+01,-4.204217910766601562e+00,-4.120420932769775391e+00,7.967903137207031250e+00,2.136230468750000000e-01,-7.476806640625000000e-01,2.975463867187500000e-01
1.122980904579162598e+01,-4.110844135284423828e+00,-4.120420932769775391e+00,7.967903137207031250e+00,5.264282226562500000e-01,-7.095336914062500000e-01,-9.918212890625000000e-02
1.124262285232543945e+01,-4.110844135284423828e+00,-4.106055736541748047e+00,7.967903137207031250e+00,5.264282226562500000e-01,-7.095336914062500000e-01,-9.918212890625000000e-02
1.125407481193542480e+01,-4.110844135284423828e+00,-4.079719543457031250e+00,7.967903137207031250e+00,4.196166992187500000e-01,-7.095336914062500000e-01,2.822875976562500000e-01
1.126690936088562012e+01,-4.175487518310546875e+00,-4.060565948486328125e+00,7.960720539093017578e+00,2.822875976562500000e-01,6.866455078125000000e-02,2.822875976562500000e-01
1.128146600723266602e+01,-4.175487518310546875e+00,-4.060565948486328125e+00,7.960720539093017578e+00,2.822875976562500000e-01,-2.670288085937500000e-01,1.373291015625000000e-01
1.129365444183349609e+01,-4.175487518310546875e+00,-4.060565948486328125e+00,8.003816604614257812e+00,-3.051757812500000000e-02,1.144409179687500000e-01,-6.866455078125000000e-02
1.130447578430175781e+01,-4.175487518310546875e+00,-4.036623954772949219e+00,8.003816604614257812e+00,-3.051757812500000000e-02,1.068115234375000000e-01,-1.144409179687500000e-01
1.132097697257995605e+01,-4.175487518310546875e+00,-4.125209331512451172e+00,7.910442352294921875e+00,3.890991210937500000e-01,1.068115234375000000e-01,-1.144409179687500000e-01
1.133146762847900391e+01,-4.175487518310546875e+00,-4.036623954772949219e+00,7.910442352294921875e+00,3.890991210937500000e-01,1.068115234375000000e-01,2.288818359375000000e-02
1.134383726119995117e+01,-4.113238334655761719e+00,-4.012681961059570312e+00,7.953537940979003906e+00,2.822875976562500000e-01,6.866455078125000000e-02,2.288818359375000000e-02
1.136095285415649414e+01,-4.209006309509277344e+00,-4.012681961059570312e+00,7.953537940979003906e+00,2.212524414062500000e-01,6.866455078125000000e-02,-1.144409179687500000e-01
1.137124037742614746e+01,-4.156333923339843750e+00,-4.012681961059570312e+00,7.939172744750976562e+00,2.822875976562500000e-01,-1.754760742187500000e-01,-2.517700195312500000e-01
1.138244724273681641e+01,-4.156333923339843750e+00,-4.067748546600341797e+00,7.939172744750976562e+00,2.822875976562500000e-01,-3.128051757812500000e-01,-2.517700195312500000e-01
1.140031886100769043e+01,-4.156333923339843750e+00,-4.012681961059570312e+00,7.893682956695556641e+00,6.256103515625000000e-01,-6.790161132812500000e-01,-4.959106445312500000e-01
1.141068339347839355e+01,-4.182670116424560547e+00,-4.067748546600341797e+00,7.931990146636962891e+00,2.822875976562500000e-01,-6.790161132812500000e-01,-1.220703125000000000e-01
1.142259621620178223e+01,-4.187458515167236328e+00,-4.144362926483154297e+00,7.855375766754150391e+00,5.722045898437500000e-01,-6.790161132812500000e-01,9.918212890625000000e-02
1.143897652626037598e+01,-4.216188907623291016e+00,-4.144362926483154297e+00,7.931990146636962891e+00,-3.280639648437500000e-01,4.577636718750000000e-02,2.441406250000000000e-01
1.144935369491577148e+01,-4.201823711395263672e+00,-4.110844135284423828e+00,7.955932140350341797e+00,1.678466796875000000e-01,-3.051757812500000000e-02,2.441406250000000000e-01
