# elapsed time, f3_acc_x, f3_acc_y, f3_acc_z, f3_gyro_x, f3_gyro_y, f3_gyro_z
6.915647983551025391e-01,-2.157175779342651811e+00,-9.504980444908142090e-01,-1.037646961212158203e+01,-3.578186035156250000e+00,-3.051757812500000000e-02,4.730224609375000000e-01
7.037570476531982422e-01,-2.157175779342651811e+00,-8.954313993453979492e-01,-1.040280628204345525e+01,-3.562927246093750000e+00,-3.051757812500000000e-02,4.730224609375000000e-01
7.183907032012939453e-01,-2.135627985000610352e+00,-8.786720037460327148e-01,-1.037646961212158203e+01,-3.562927246093750000e+00,-3.051757812500000000e-02,4.730224609375000000e-01
7.316613197326660156e-01,-2.099714756011962891e+00,-8.954313993453979492e-01,-1.034773921966552734e+01,-3.677368164062500000e+00,-3.051757812500000000e-02,5.569458007812500000e-01
7.458992004394531250e-01,-2.133233785629272461e+00,-9.145850539207458496e-01,-1.034773921966552734e+01,-3.677368164062500000e+00,-6.103515625000000000e-02,4.348754882812500000e-01
7.604196071624755859e-01,-2.114079952239990234e+00,-9.145850539207458496e-01,-1.044111347198486328e+01,-3.677368164062500000e+00,-1.525878906250000000e-01,6.332397460937500000e-01
7.722282409667968750e-01,-2.114079952239990234e+00,-9.050082564353943981e-01,-1.044111347198486328e+01,-3.662109375000000000e+00,-2.517700195312500000e-01,4.882812500000000000e-01
7.877078056335449219e-01,-2.114079952239990234e+00,-8.810662031173706055e-01,-1.043153667449951172e+01,-3.669738769531250000e+00,-2.593994140625000000e-01,6.332397460937500000e-01
8.001058101654052734e-01,-2.183511972427368164e+00,-8.810662031173706055e-01,-1.042914199829101562e+01,-3.578186035156250000e+00,-2.593994140625000000e-01,4.882812500000000000e-01
8.142890930175781250e-01,-2.183511972427368164e+00,-8.810662031173706055e-01,-1.042914199829101562e+01,-3.532409667968750000e+00,-1.068115234375000000e-01,6.408691406250000000e-01
8.345804214477539062e-01,-2.147598981857299805e+00,-8.595184087753295898e-01,-1.036928749084472834e+01,-3.532409667968750000e+00,-1.068115234375000000e-01,4.577636718750000000e-01
8.445870876312255859e-01,-2.135627985000610352e+00,-8.906430006027221680e-01,-1.036928749084472834e+01,-3.616333007812500000e+00,0.000000000000000000e+00,5.722045898437500000e-01
8.580515384674072266e-01,-2.135627985000610352e+00,-8.954313993453979492e-01,-1.036449909210205078e+01,-3.623962402343750000e+00,-1.449584960937500000e-01,5.722045898437500000e-01
8.693506717681884766e-01,-2.135627985000610352e+00,-9.385270476341247559e-01,-1.036449909210205078e+01,-3.730773925781250000e+00,-1.449584960937500000e-01,5.722045898437500000e-01
8.839135169982910156e-01,-2.145204782485961914e+00,-9.361328482627867542e-01,-1.044829559326172053e+01,-3.738403320312500000e+00,-2.212524414062500000e-01,6.332397460937500000e-01
8.963789939880371094e-01,-2.145204782485961914e+00,-9.361328482627867542e-01,-1.044829559326172053e+01,-3.738403320312500000e+00,-2.212524414062500000e-01,4.501342773437500000e-01
9.096930027008056641e-01,-2.128445386886596680e+00,-9.002197980880737305e-01,-1.044829559326172053e+01,-3.738403320312500000e+00,-2.212524414062500000e-01,3.967285156250000000e-01
9.228281974792480469e-01,-2.128445386886596680e+00,-9.002197980880737305e-01,-1.038844108581542969e+01,-3.868103027343750000e+00,1.296997070312500000e-01,3.967285156250000000e-01
9.387011528015136719e-01,-2.161964178085327148e+00,-8.930371999740600586e-01,-1.038844108581542969e+01,-3.707885742187500000e+00,-1.678466796875000000e-01,5.264282226562500000e-01
9.528458118438720703e-01,-2.161964178085327148e+00,-8.930371999740600586e-01,-1.038844108581542969e+01,-3.662109375000000000e+00,-1.678466796875000000e-01,5.264282226562500000e-01
9.645400047302246094e-01,-2.145204782485961914e+00,-8.930371999740600586e-01,-1.043632507324218750e+01,-3.631591796875000000e+00,-1.678466796875000000e-01,5.264282226562500000e-01
9.816088676452636719e-01,-2.145204782485961914e+00,-9.097966551780699573e-01,-1.045547866821289062e+01,-3.631591796875000000e+00,-3.128051757812500000e-01,6.179809570312500000e-01
9.921734333038330078e-01,-2.145204782485961914e+00,-9.097966551780699573e-01,-1.045547866821289062e+01,-3.524780273437500000e+00,-6.103515625000000000e-02,5.111694335937500000e-01
1.006258726119995117e+00,-2.164358377456665039e+00,-9.097966551780699573e-01,-1.029985523223876953e+01,-3.875732421875000000e+00,-6.103515625000000000e-02,5.111694335937500000e-01
1.023785114288330078e+00,-2.145204782485961914e+00,-9.313444495201111950e-01,-1.029985523223876953e+01,-3.707885742187500000e+00,-6.103515625000000000e-02,5.111694335937500000e-01
1.035017967224121094e+00,-2.145204782485961914e+00,-9.481038451194764294e-01,-1.035252761840820312e+01,-3.707885742187500000e+00,0.000000000000000000e+00,4.653930664062500000e-01
1.048906087875366211e+00,-2.145204782485961914e+00,-9.313444495201111950e-01,-1.041956520080566406e+01,-3.707885742187500000e+00,-2.822875976562500000e-01,5.111694335937500000e-01
1.062638998031616211e+00,-2.145204782485961914e+00,-9.193734526634216309e-01,-1.035252761840820312e+01,-3.807067871093750000e+00,3.814697265625000000e-02,4.653930664062500000e-01
1.075100421905517578e+00,-2.159569978713989258e+00,-9.169792532920836292e-01,-1.045069026947021662e+01,-3.807067871093750000e+00,-2.746582031250000000e-01,3.356933593750000000e-01
1.088758707046508789e+00,-2.142810583114624023e+00,-9.145850539207458496e-01,-1.042914199829101562e+01,-3.723144531250000000e+00,3.814697265625000000e-02,3.356933593750000000e-01
1.104642868041992188e+00,-2.135627985000610352e+00,-8.882488012313842773e-01,-1.042914199829101562e+01,-3.524780273437500000e+00,-2.288818359375000000e-01,5.645751953125000000e-01
1.117583751678466797e+00,-2.123656988143920898e+00,-8.882488012313842773e-01,-1.036210441589355646e+01,-3.639221191406250000e+00,1.525878906250000000e-01,5.645751953125000000e-01
1.129190921783447266e+00,-2.123656988143920898e+00,-9.385270476341247559e-01,-1.036210441589355646e+01,-3.639221191406250000e+00,-2.288818359375000000e-01,5.645751953125000000e-01
1.147290468215942383e+00,-2.181117773056030273e+00,-9.528922438621519886e-01,-1.042195987701416016e+01,-3.707885742187500000e+00,-7.629394531250000000e-03,5.645751953125000000e-01
1.157303333282470703e+00,-2.181117773056030273e+00,-9.481038451194764294e-01,-1.042195987701416016e+01,-3.814697265625000000e+00,-7.629394531250000000e-03,5.111694335937500000e-01
1.170575141906738281e+00,-2.147598981857299805e+00,-9.481038451194764294e-01,-1.039801788330077947e+01,-3.761291503906250000e+00,-7.629394531250000000e-03,5.111694335937500000e-01
1.188699483871459961e+00,-2.147598981857299805e+00,-9.361328482627867542e-01,-1.033816242218017578e+01,-3.761291503906250000e+00,-2.822875976562500000e-01,4.806518554687500000e-01
1.199448108673095703e+00,-2.149993181228637695e+00,-8.571242094039916992e-01,-1.033816242218017578e+01,-3.746032714843750000e+00,-3.051757812500000000e-01,4.806518554687500000e-01
1.213372707366943359e+00,-2.149993181228637695e+00,-8.882488012313842773e-01,-1.036449909210205078e+01,-3.730773925781250000e+00,-3.051757812500000000e-01,5.569458007812500000e-01
1.227913856506347656e+00,-2.149993181228637695e+00,-8.762778043746948242e-01,-1.038365268707275391e+01,-3.494262695312500000e+00,-9.918212890625000000e-02,5.569458007812500000e-01
1.240628480911254883e+00,-2.140416383743286133e+00,-8.882488012313842773e-01,-1.050336265563964844e+01,-3.585815429687500000e+00,-6.866455078125000000e-02,5.111694335937500000e-01
1.252606391906738281e+00,-2.140416383743286133e+00,-8.810662031173706055e-01,-1.050336265563964844e+01,-3.532409667968750000e+00,-6.866455078125000000e-02,5.111694335937500000e-01
1.267401218414306641e+00,-2.140416383743286133e+00,-8.834604024887084961e-01,-1.041477680206298828e+01,-3.585815429687500000e+00,-1.831054687500000000e-01,5.111694335937500000e-01
1.287401199340820312e+00,-2.161964178085327148e+00,-8.834604024887084961e-01,-1.041477680206298828e+01,-3.768920898437500000e+00,-2.136230468750000000e-01,5.722045898437500000e-01
1.412164688110351562e+00,-2.161964178085327148e+00,-9.074024558067321777e-01,-1.037407588958740234e+01,-3.768920898437500000e+00,-3.356933593750000000e-01,7.019042968750000000e-01
1.422471046447753906e+00,-2.015917778015136719e+00,-1.228225469589233398e+00,-5.528211593627929688e+00,1.348266601562500000e+02,-1.055145263671875000e+01,7.019042968750000000e-01
1.435894727706909180e+00,-2.015917778015136719e+00,-2.054224967956542969e+00,-5.528211593627929688e+00,1.348266601562500000e+02,-1.055145263671875000e+01,5.340576171875000000e-01
1.448139905929565430e+00,-2.293645143508911133e+00,-3.821145772933959961e+00,-9.739612579345703125e+00,1.348266601562500000e+02,-7.217407226562500000e+00,-7.087707519531250000e+00
1.463238716125488281e+00,-2.669534921646118164e+00,-4.788403511047363281e+00,-1.263659667968750000e+01,1.660690307617187500e+02,-7.217407226562500000e+00,-7.087707519531250000e+00
1.476801395416259766e+00,-4.206612110137940341e+00,-5.537788391113281250e+00,-1.391031169891357422e+01,1.965408325195312500e+02,-7.080078125000000000e+00,-7.087707519531250000e+00
1.489799976348876953e+00,-4.206612110137940341e+00,-5.537788391113281250e+00,-1.391031169891357422e+01,2.282562255859375000e+02,-6.813049316406250000e+00,-3.385162353515625000e+01
1.503927707672119141e+00,-2.784456491470336914e+00,-4.855441093444824219e+00,-1.180101966857910156e+01,2.499923706054687500e+02,-6.813049316406250000e+00,-3.385162353515625000e+01
1.516710996627807617e+00,-2.106897354125977007e+00,-4.745307922363281250e+00,-6.924031257629394531e+00,2.499923706054687500e+02,-5.615234375000000000e+00,-3.385162353515625000e+01
1.539622306823730469e+00,-2.106897354125977007e+00,-4.307168960571289062e+00,-4.668693065643311435e+00,2.308578491210937216e+02,-5.615234375000000000e+00,-4.142761230468750000e+01
1.550767421722412109e+00,-1.443703651428222878e+00,-4.307168960571289062e+00,-4.541800498962402344e+00,1.897659301757812500e+02,-5.401611328125000000e+00,-4.142761230468750000e+01
1.561152219772338867e+00,-1.443703651428222878e+00,-6.794744491577148438e+00,-4.541800498962402344e+00,1.635971069335937500e+02,9.002685546875000000e-01,-3.273773193359375000e+01
1.572823524475097656e+00,-1.800439596176147683e+00,-6.806715488433837891e+00,-7.943961143493652344e+00,1.635971069335937500e+02,9.002685546875000000e-01,-3.180694580078125000e+01
1.585591316223144531e+00,-1.965639591217041016e+00,-8.092401504516601562e+00,-7.943961143493652344e+00,1.920166015625000000e+02,-1.040649414062500000e+01,-2.722167968750000000e+01
1.601065158843994141e+00,-2.896984100341796875e+00,-8.092401504516601562e+00,-7.850587368011474609e+00,1.973571777343750000e+02,-1.213836669921875000e+01,-9.696960449218750000e+00
1.615076541900634766e+00,-2.896984100341796875e+00,-8.520963668823242188e+00,-7.850587368011474609e+00,2.106399536132812500e+02,-1.040649414062500000e+01,-2.722167968750000000e+01
1.627100467681884766e+00,-2.858676671981811523e+00,-6.734889507293701172e+00,-6.986280441284179688e+00,2.466583251953125000e+02,-2.397155761718750000e+01,-8.697509765625000000e+00
1.643314599990844727e+00,6.177040338516235352e-01,-6.734889507293701172e+00,-6.035782337188720703e+00,2.499923706054687500e+02,-3.715515136718750000e+00,-8.224487304687500000e+01
1.654109001159667969e+00,-2.858676671981811523e+00,-6.734889507293701172e+00,-5.204994201660156250e+00,2.499923706054687500e+02,-2.421569824218750000e+01,3.677368164062500000e+00
1.669665813446044922e+00,6.177040338516235352e-01,-7.003039836883544922e+00,-4.106055736541748047e+00,2.499923706054687500e+02,-3.715515136718750000e+00,-7.164001464843750000e+01
1.683291673660278320e+00,-5.085284233093261719e+00,-7.003039836883544922e+00,-4.106055736541748047e+00,2.407608032226562500e+02,-3.407287597656250000e+01,1.145935058593750000e+01
1.696531057357788086e+00,2.992752194404602051e-01,-9.612719535827636719e+00,-3.895366191864013672e+00,2.499923706054687500e+02,-1.152038574218750000e+00,-5.922698974609375000e+01
1.711850404739379883e+00,-3.428496837615966797e+00,-7.556100368499755859e+00,-1.977610588073730469e+00,2.499923706054687500e+02,-1.171112060546875000e+01,-2.090454101562500000e+01
1.726507425308227539e+00,2.992752194404602051e-01,-9.612719535827636719e+00,-3.047818660736083984e+00,2.499923706054687500e+02,-2.288818359375000000e-01,-3.785705566406250000e+01
1.738573074340820312e+00,-3.428496837615966797e+00,-7.556100368499755859e+00,-3.047818660736083984e+00,2.499923706054687500e+02,-2.288818359375000000e-01,-3.785705566406250000e+01
1.751118659973144531e+00,-4.223371505737304688e+00,-9.672574996948242188e+00,-3.047818660736083984e+00,9.017944335937500000e+01,-2.288818359375000000e-01,-3.785705566406250000e+01
1.767733573913574219e+00,-4.223371505737304688e+00,-9.809043884277343750e+00,2.944867908954619806e-01,3.930664062500000000e+01,2.476501464843750000e+01,9.262084960937500000e+00
1.777808189392089844e+00,-1.707065820693969505e+00,-9.809043884277343750e+00,2.944867908954619806e-01,7.397460937500000000e+01,1.795959472656250000e+01,9.262084960937500000e+00
1.793128013610839844e+00,-1.707065820693969505e+00,-9.809043884277343750e+00,-7.900865375995630435e-02,7.015228271484375000e+01,1.795959472656250000e+01,-2.037048339843750000e+00
1.806854724884033203e+00,-1.206677675247192383e+00,-9.564835548400880683e+00,-7.900865375995630435e-02,7.015228271484375000e+01,1.073455810546875000e+01,-2.037048339843750000e+00
1.819334506988525391e+00,-1.501164436340332031e+00,-9.737217903137208808e+00,1.218648672103881836e+00,5.145263671875000000e+01,5.249023437500000000e+00,-2.037048339843750000e+00
1.834882736206054688e+00,-1.206677675247192383e+00,-9.519346237182615411e+00,2.389413356781005859e+00,4.499053955078125000e+01,4.989624023437500000e+00,-1.098632812500000000e+00
1.848707199096679688e+00,-1.501164436340332031e+00,-9.069235801696775567e+00,2.389413356781005859e+00,5.416870117187500000e-01,7.553100585937500000e-01,-9.994506835937500000e-01
1.862021923065185547e+00,-1.553836822509765625e+00,-9.069235801696775567e+00,1.187524080276489258e+00,-3.890991210937500000e-01,7.553100585937500000e-01,4.257202148437500000e+00
1.873484373092651367e+00,-1.563413739204406738e+00,-9.569623947143556464e+00,7.685387134552001953e-01,-1.296997070312500000e+00,-1.205444335937500000e+00,4.257202148437500000e+00
1.890962600708007812e+00,-1.563413739204406738e+00,-9.801861763000488281e+00,7.685387134552001953e-01,-1.296997070312500000e+00,-2.723693847656250000e+00,1.373291015625000000e+00
1.900914907455444336e+00,-1.328781962394714355e+00,-9.801861763000488281e+00,7.709329128265380859e-01,-3.860473632812500000e+00,-2.723693847656250000e+00,1.373291015625000000e+00
1.915390729904174805e+00,-1.328781962394714355e+00,-9.801861763000488281e+00,7.709329128265380859e-01,-5.538940429687500000e+00,-1.304626464843750000e+00,8.926391601562500000e-01
1.932895421981811523e+00,-1.218648672103881836e+00,-9.969455718994140625e+00,4.644751250743865967e-01,-5.538940429687500000e+00,-9.613037109375000000e-01,7.629394531250000000e-01
1.942761659622192383e+00,-1.357512354850769043e+00,-9.861716270446775567e+00,3.016694188117980957e-01,-3.036499023437500000e+00,4.196166992187500000e-01,4.043579101562500000e-01
1.958468914031982422e+00,-1.302445650100708008e+00,-9.861716270446775567e+00,3.016694188117980957e-01,-2.296447753906250000e+00,-3.433227539062500000e-01,-5.874633789062500000e-01
1.969623327255249023e+00,-1.357512354850769043e+00,-9.861716270446775567e+00,5.674257874488830566e-01,-2.296447753906250000e+00,4.653930664062500000e-01,-5.874633789062500000e-01
1.984878540039062500e+00,-1.357512354850769043e+00,-9.945513725280761719e+00,5.674257874488830566e-01,-3.211975097656250000e+00,-3.433227539062500000e-01,-3.585815429687500000e-01
1.997774600982666016e+00,-1.357512354850769043e+00,-1.002691650390625000e+01,3.591302633285521906e-01,-3.211975097656250000e+00,1.113891601562500000e+00,-3.585815429687500000e-01
2.011059284210205078e+00,-1.264138460159301758e+00,-1.002691650390625000e+01,3.591302633285521906e-01,-3.173828125000000000e+00,-1.411437988281250000e+00,-3.585815429687500000e-01
2.025324821472167969e+00,-1.177947163581847922e+00,-9.823409080505372870e+00,5.291185379028320312e-01,-3.173828125000000000e+00,1.113891601562500000e+00,4.043579101562500000e-01
2.038087129592895508e+00,-1.177947163581847922e+00,-9.794678688049316406e+00,5.291185379028320312e-01,-4.150390625000000000e+00,-7.934570312500000000e-01,9.307861328125000000e-01
2.053340196609497070e+00,-1.312022566795349121e+00,-9.823409080505372870e+00,5.075707435607910156e-01,-4.150390625000000000e+00,-5.340576171875000000e-02,1.358032226562500000e+00
2.065342426300048828e+00,-1.412578940391540305e+00,-9.868899345397949219e+00,3.854664564132689875e-01,-3.761291503906250000e+00,-5.798339843750000000e-01,1.358032226562500000e+00
2.080200672149658203e+00,-1.412578940391540305e+00,-9.868899345397949219e+00,5.075707435607910156e-01,-2.937316894531250000e+00,-5.798339843750000000e-01,1.304626464843750000e+00
2.092007160186767578e+00,-1.223437070846557617e+00,-9.852139472961425781e+00,5.506663918495178223e-01,-2.937316894531250000e+00,-5.798339843750000000e-01,1.304626464843750000e+00
2.106952190399169922e+00,-1.223437070846557617e+00,-9.718064308166503906e+00,5.506663918495178223e-01,-4.158020019531250000e+00,-7.171630859375000000e-01,1.846313476562500000e+00
2.119672060012817383e+00,-1.278503656387329102e+00,-9.718064308166503906e+00,5.889735817909240723e-01,-4.180908203125000000e+00,-3.814697265625000000e-02,1.846313476562500000e+00
2.134141921997070312e+00,-1.359906554222106934e+00,-9.794678688049316406e+00,5.386953949928283691e-01,-4.180908203125000000e+00,-3.890991210937500000e-01,1.312255859375000000e+00
2.149713039398193359e+00,-1.331176161766052246e+00,-9.890446662902832031e+00,4.596867263317108154e-01,-3.578186035156250000e+00,-3.890991210937500000e-01,8.239746093750000000e-01
2.162231445312500000e+00,-1.359906554222106934e+00,-9.794678688049316406e+00,4.596867263317108154e-01,-3.578186035156250000e+00,-3.890991210937500000e-01,3.356933593750000000e-01
2.176359176635742188e+00,-1.367089152336120605e+00,-9.756371498107910156e+00,4.596867263317108154e-01,-3.295898437500000000e+00,-4.425048828125000000e-01,2.593994140625000000e-01
2.189197540283203125e+00,-1.367089152336120605e+00,-9.756371498107910156e+00,3.926490843296051025e-01,-4.119873046875000000e+00,3.967285156250000000e-01,8.392333984375000000e-02
2.204095363616943359e+00,-1.343147158622741699e+00,-9.794678688049316406e+00,3.926490843296051025e-01,-3.364562988281250000e+00,8.239746093750000000e-01,-9.918212890625000000e-02
2.215813398361206055e+00,-1.331176161766052246e+00,-9.801861763000488281e+00,4.309563040733336847e-01,-3.372192382812500000e+00,8.239746093750000000e-01,8.392333984375000000e-02
2.230608224868774414e+00,-1.297657251358032227e+00,-9.835380554199220526e+00,5.602431893348693848e-01,-3.372192382812500000e+00,5.340576171875000000e-01,2.593994140625000000e-01
2.247005224227905273e+00,-1.331176161766052246e+00,-9.873687744140623224e+00,5.602431893348693848e-01,-3.410339355468750000e+00,7.629394531250000000e-03,3.662109375000000000e-01
2.257889747619628906e+00,-1.297657251358032227e+00,-9.873687744140623224e+00,5.219359397888183594e-01,-3.410339355468750000e+00,-1.831054687500000000e-01,3.662109375000000000e-01
2.274889707565307617e+00,-1.247379064559936301e+00,-9.847351074218750000e+00,5.195417404174804688e-01,-3.112792968750000000e+00,-7.095336914062500000e-01,6.103515625000000000e-01
2.285400390625000000e+00,-1.247379064559936301e+00,-9.816226959228515625e+00,5.195417404174804688e-01,-3.112792968750000000e+00,-8.010864257812500000e-01,1.335144042968750000e+00
2.299668550491333008e+00,-1.316810965538024902e+00,-9.816226959228515625e+00,4.764461219310759943e-01,-3.623962402343750000e+00,-8.010864257812500000e-01,1.808166503906250000e+00
2.313633680343627930e+00,-1.335964560508728027e+00,-9.828197479248048651e+00,4.764461219310759943e-01,-3.639221191406250000e+00,-5.035400390625000000e-01,1.808166503906250000e+00
2.327625513076782227e+00,-1.335964560508728027e+00,-9.885658264160156250e+00,4.764461219310759943e-01,-3.639221191406250000e+00,-5.035400390625000000e-01,1.136779785156250000e+00
2.338268280029296875e+00,-1.331176161766052246e+00,-9.885658264160156250e+00,4.740519225597381037e-01,-3.524780273437500000e+00,-5.035400390625000000e-01,9.613037109375000000e-01
2.356547355651855469e+00,-1.276109457015991211e+00,-9.868899345397949219e+00,5.027823448181152344e-01,-3.524780273437500000e+00,-7.019042968750000000e-01,9.613037109375000000e-01
2.367847442626953125e+00,-1.276109457015991211e+00,-9.868899345397949219e+00,5.027823448181152344e-01,-4.158020019531250000e+00,-8.392333984375000000e-02,8.773803710937500000e-01
2.380764007568359375e+00,-1.333570361137389915e+00,-9.868899345397949219e+00,5.027823448181152344e-01,-4.158020019531250000e+00,4.882812500000000000e-01,4.196166992187500000e-01
2.398609399795532227e+00,-1.388636946678161621e+00,-9.861716270446775567e+00,5.051765441894531250e-01,-3.845214843750000000e+00,4.882812500000000000e-01,3.128051757812500000e-01
2.409165859222412109e+00,-1.333570361137389915e+00,-9.861716270446775567e+00,4.405331015586853027e-01,-3.654479980468750000e+00,5.950927734375000000e-01,-1.602172851562500000e-01
2.421454191207885742e+00,-1.410184741020202637e+00,-9.861716270446775567e+00,5.051765441894531250e-01,-3.250122070312500000e+00,3.662109375000000000e-01,-2.746582031250000000e-01
2.436566591262817383e+00,-1.309628367424011230e+00,-9.852139472961425781e+00,5.386953949928283691e-01,-3.654479980468750000e+00,-4.653930664062500000e-01,-1.602172851562500000e-01
2.449310064315795898e+00,-1.345541357994079590e+00,-9.830592155456544745e+00,5.386953949928283691e-01,-3.616333007812500000e+00,-4.653930664062500000e-01,2.899169921875000000e-01
2.461182594299316406e+00,-1.326387763023376465e+00,-9.830592155456544745e+00,4.955997467041015070e-01,-3.616333007812500000e+00,-5.035400390625000000e-01,3.509521484375000000e-01
2.479544639587402344e+00,-1.345541357994079590e+00,-9.868899345397949219e+00,4.955997467041015070e-01,-3.349304199218750000e+00,-2.288818359375000000e-01,3.967285156250000000e-01
2.491913795471191406e+00,-1.326387763023376465e+00,-9.868899345397949219e+00,4.908113479614257812e-01,-3.280639648437500000e+00,-5.035400390625000000e-01,7.019042968750000000e-01
2.502991437911987305e+00,-1.309628367424011230e+00,-9.835380554199220526e+00,4.979939460754393976e-01,-3.280639648437500000e+00,-5.493164062500000000e-01,7.934570312500000000e-01
2.520771026611328125e+00,-1.309628367424011230e+00,-9.773131370544433594e+00,6.129156351089477539e-01,-3.280639648437500000e+00,-5.493164062500000000e-01,1.106262207031250000e+00
2.531808376312255859e+00,-1.309628367424011230e+00,-9.773131370544433594e+00,6.129156351089477539e-01,-3.280639648437500000e+00,-5.493164062500000000e-01,1.106262207031250000e+00
2.545048236846923828e+00,-1.261744260787964089e+00,-9.773131370544433594e+00,5.889735817909240723e-01,-3.623962402343750000e+00,-7.400512695312500000e-01,1.121520996093750000e+00
2.560884952545166016e+00,-1.261744260787964089e+00,-9.792284965515136719e+00,5.793967843055725098e-01,-3.997802734375000000e+00,-7.400512695312500000e-01,1.083374023437500000e+00
2.573173522949218750e+00,-1.280897855758666992e+00,-9.794678688049316406e+00,4.333505034446715753e-01,-3.997802734375000000e+00,-9.689331054687500000e-01,1.052856445312500000e+00
2.587032556533813477e+00,-1.280897855758666992e+00,-9.847351074218750000e+00,4.548983275890349787e-01,-3.776550292968750000e+00,-3.814697265625000000e-02,6.637573242187500000e-01
2.598683118820190430e+00,-1.235408067703247070e+00,-9.847351074218750000e+00,3.998316824436187744e-01,-3.776550292968750000e+00,-3.814697265625000000e-02,6.637573242187500000e-01
2.615583896636962891e+00,-1.235408067703247070e+00,-9.880869865417480469e+00,4.548983275890349787e-01,-3.791809082031250000e+00,3.051757812500000000e-02,6.256103515625000000e-01
2.627580404281616211e+00,-1.254561662673950195e+00,-9.821015357971191406e+00,5.746083855628967285e-01,-3.791809082031250000e+00,1.373291015625000000e-01,6.942749023437500000e-01
2.641701936721801758e+00,-1.300051450729369895e+00,-9.873687744140623224e+00,5.746083855628967285e-01,-3.608703613281250000e+00,3.051757812500000000e-02,6.256103515625000000e-01
2.653828382492065430e+00,-1.374271750450134499e+00,-9.823409080505372870e+00,5.410895943641662598e-01,-3.524780273437500000e+00,2.212524414062500000e-01,-2.136230468750000000e-01
2.667899131774902344e+00,-1.393425345420837402e+00,-9.823409080505372870e+00,4.740519225597381037e-01,-3.608703613281250000e+00,1.373291015625000000e-01,-2.517700195312500000e-01
2.683364152908325195e+00,-1.391031146049499512e+00,-9.765948295593261719e+00,5.195417404174804688e-01,-3.623962402343750000e+00,1.373291015625000000e-01,-2.517700195312500000e-01
