# elapsed time, f3_acc_x, f3_acc_y, f3_acc_z, f3_gyro_x, f3_gyro_y, f3_gyro_z
2.740248560905456543e+01,-1.398213744163513184e+00,-8.597578048706054688e+00,4.187458515167236328e+00,-3.509521484375000000e+00,-2.288818359375000000e-01,6.561279296875000000e-01
2.741327810287475586e+01,-1.398213744163513184e+00,-8.547300338745117188e+00,4.058171749114990234e+00,-3.509521484375000000e+00,-2.517700195312500000e-01,7.629394531250000000e-01
2.742795515060424805e+01,-1.419761538505554199e+00,-8.549694061279298651e+00,4.058171749114990234e+00,-3.669738769531250000e+00,-2.288818359375000000e-01,8.087158203125000000e-01
2.744467306137084961e+01,-1.417367339134216309e+00,-8.549694061279298651e+00,4.062960147857666016e+00,-3.593444824218750000e+00,-1.296997070312500000e-01,8.087158203125000000e-01
2.745559906959533691e+01,-1.419761538505554199e+00,-8.578424453735353339e+00,4.062960147857666016e+00,-3.593444824218750000e+00,-1.296997070312500000e-01,8.087158203125000000e-01
2.746852684020996094e+01,-1.417367339134216309e+00,-8.578424453735353339e+00,4.074931144714356357e+00,-3.448486328125000000e+00,-1.068115234375000000e-01,6.942749023437500000e-01
2.748337173461914062e+01,-1.400607943534850852e+00,-8.643068313598632812e+00,4.074931144714356357e+00,-3.448486328125000000e+00,-1.296997070312500000e-01,6.484985351562500000e-01
2.749574375152587891e+01,-1.391031146049499512e+00,-8.573636054992675781e+00,4.074931144714356357e+00,-3.456115722656250000e+00,7.629394531250000000e-03,6.484985351562500000e-01
2.751142096519470215e+01,-1.391031146049499512e+00,-8.573636054992675781e+00,4.194641113281250000e+00,-3.585815429687500000e+00,-1.296997070312500000e-01,7.247924804687500000e-01
2.752602744102478027e+01,-1.436521053314208984e+00,-8.573636054992675781e+00,4.163516521453856534e+00,-3.593444824218750000e+00,-2.441406250000000000e-01,7.705688476562500000e-01
2.753842186927795410e+01,-1.436521053314208984e+00,-8.571242332458496094e+00,4.163516521453856534e+00,-3.601074218750000000e+00,-2.441406250000000000e-01,7.247924804687500000e-01
2.755040884017944336e+01,-1.391031146049499512e+00,-8.643068313598632812e+00,4.141968727111816406e+00,-3.608703613281250000e+00,-2.212524414062500000e-01,7.781982421875000000e-01
2.756734800338745117e+01,-1.391031146049499512e+00,-8.580819129943847656e+00,4.141968727111816406e+00,-3.608703613281250000e+00,-2.212524414062500000e-01,6.561279296875000000e-01
2.757834339141845703e+01,-1.381454348564147949e+00,-8.595184326171875000e+00,4.141968727111816406e+00,-3.608703613281250000e+00,-2.822875976562500000e-01,6.637573242187500000e-01
2.759219646453857422e+01,-1.379060149192810059e+00,-8.595184326171875000e+00,4.141968727111816406e+00,-3.616333007812500000e+00,-4.043579101562500000e-01,6.561279296875000000e-01
2.760652899742126465e+01,-1.379060149192810059e+00,-8.595184326171875000e+00,4.141968727111816406e+00,-3.616333007812500000e+00,-2.822875976562500000e-01,6.637573242187500000e-01
2.761969923973083496e+01,-1.448492050170898438e+00,-8.616731643676757812e+00,4.113238334655761719e+00,-3.646850585937500000e+00,-4.425048828125000000e-01,8.316040039062500000e-01
2.763357496261596680e+01,-1.448492050170898438e+00,-8.616731643676757812e+00,4.137180328369141513e+00,-3.601074218750000000e+00,-1.525878906250000000e-01,8.316040039062500000e-01
2.764666581153869629e+01,-1.441309452056884766e+00,-8.631096839904785156e+00,4.113238334655761719e+00,-3.479003906250000000e+00,-1.525878906250000000e-01,8.468627929687500000e-01
2.766063570976257324e+01,-1.405396342277526855e+00,-8.631096839904785156e+00,4.067748546600341797e+00,-3.479003906250000000e+00,-1.525878906250000000e-01,7.095336914062500000e-01
2.767269301414489746e+01,-1.441309452056884766e+00,-8.631096839904785156e+00,4.067748546600341797e+00,-3.486633300781250000e+00,-9.918212890625000000e-02,6.256103515625000000e-01
2.768809986114501953e+01,-1.453280448913574219e+00,-8.556877136230468750e+00,4.082113742828368252e+00,-3.593444824218750000e+00,-1.602172851562500000e-01,6.256103515625000000e-01
2.769974184036254883e+01,-1.453280448913574219e+00,-8.635885238647460938e+00,4.113238334655761719e+00,-3.593444824218750000e+00,-2.670288085937500000e-01,7.400512695312500000e-01
2.771519804000854492e+01,-1.403002142906188965e+00,-8.571242332458496094e+00,4.139574527740479404e+00,-3.593444824218750000e+00,-2.670288085937500000e-01,7.400512695312500000e-01
2.772727465629577637e+01,-1.393425345420837402e+00,-8.635885238647460938e+00,4.139574527740479404e+00,-3.585815429687500000e+00,-2.670288085937500000e-01,7.171630859375000000e-01
2.774165415763854980e+01,-1.403002142906188965e+00,-8.585607528686521661e+00,4.197035312652587891e+00,-3.517150878906250000e+00,-2.593994140625000000e-01,7.171630859375000000e-01
2.775704050064086914e+01,-1.407790541648864746e+00,-8.604761123657228339e+00,4.070142745971680576e+00,-3.585815429687500000e+00,-3.356933593750000000e-01,7.324218750000000000e-01
2.776869106292724609e+01,-1.407790541648864746e+00,-8.604761123657228339e+00,4.122815132141113281e+00,-3.517150878906250000e+00,-2.441406250000000000e-01,7.324218750000000000e-01
2.778404688835144043e+01,-1.410184741020202637e+00,-8.604761123657228339e+00,4.101267337799071377e+00,-3.555297851562500000e+00,-2.441406250000000000e-01,8.010864257812500000e-01
2.779592800140380859e+01,-1.407790541648864746e+00,-8.621520042419433594e+00,4.101267337799071377e+00,-3.555297851562500000e+00,-2.288818359375000000e-01,7.324218750000000000e-01
2.781157326698303223e+01,-1.407790541648864746e+00,-8.609549522399902344e+00,4.101267337799071377e+00,-3.555297851562500000e+00,-9.918212890625000000e-02,7.324218750000000000e-01
2.782364273071289062e+01,-1.407790541648864746e+00,-8.621520042419433594e+00,4.098873138427733487e+00,-3.448486328125000000e+00,-4.577636718750000000e-02,7.019042968750000000e-01
2.783838725090026855e+01,-1.393425345420837402e+00,-8.609549522399902344e+00,4.134786128997803623e+00,-3.448486328125000000e+00,-4.577636718750000000e-02,7.019042968750000000e-01
2.785038399696350098e+01,-1.383848547935485840e+00,-8.609549522399902344e+00,4.134786128997803623e+00,-3.448486328125000000e+00,-3.204345703125000000e-01,7.858276367187500000e-01
2.786583447456359863e+01,-1.383848547935485840e+00,-8.535328865051269531e+00,4.134786128997803623e+00,-3.669738769531250000e+00,-4.119873046875000000e-01,9.231567382812500000e-01
2.788010048866271973e+01,-1.400607943534850852e+00,-8.535328865051269531e+00,4.134786128997803623e+00,-3.906250000000000000e+00,-3.967285156250000000e-01,9.231567382812500000e-01
2.789190888404846191e+01,-1.417367339134216309e+00,-8.530540466308593750e+00,4.089296340942383701e+00,-3.906250000000000000e+00,-3.967285156250000000e-01,9.231567382812500000e-01
2.790766954421997070e+01,-1.426944136619568093e+00,-8.530540466308593750e+00,4.089296340942383701e+00,-3.501892089843750000e+00,0.000000000000000000e+00,8.926391601562500000e-01
2.792037582397460938e+01,-1.441309452056884766e+00,-8.465896606445312500e+00,4.048594951629638672e+00,-3.501892089843750000e+00,0.000000000000000000e+00,6.332397460937500000e-01
2.793396854400634766e+01,-1.455674648284911887e+00,-8.465896606445312500e+00,4.048594951629638672e+00,-3.501892089843750000e+00,-6.103515625000000000e-02,5.111694335937500000e-01
2.794706606864929199e+01,-1.455674648284911887e+00,-8.391676902770996094e+00,4.094084739685058594e+00,-3.936767578125000000e+00,-7.629394531250000000e-02,5.111694335937500000e-01
2.796136784553527832e+01,-1.448492050170898438e+00,-8.609549522399902344e+00,4.101267337799071377e+00,-3.936767578125000000e+00,-3.662109375000000000e-01,9.078979492187500000e-01
2.797575688362121582e+01,-1.424549937248229980e+00,-8.645462036132812500e+00,4.206612110137940341e+00,-3.936767578125000000e+00,-3.662109375000000000e-01,9.078979492187500000e-01
2.798918890953063965e+01,-1.424549937248229980e+00,-8.647856712341308594e+00,4.206612110137940341e+00,-3.608703613281250000e+00,-1.907348632812500000e-01,9.078979492187500000e-01
2.800271797180175781e+01,-1.443703651428222878e+00,-8.647856712341308594e+00,4.228159904479980469e+00,-3.608703613281250000e+00,-7.629394531250000000e-02,6.561279296875000000e-01
2.801465630531311035e+01,-1.443703651428222878e+00,-8.628703117370605469e+00,4.192246913909912109e+00,-3.616333007812500000e+00,-7.629394531250000000e-02,6.561279296875000000e-01
2.803235888481140137e+01,-1.426944136619568093e+00,-8.628703117370605469e+00,4.192246913909912109e+00,-3.837585449218750000e+00,-3.051757812500000000e-01,1.319885253906250000e+00
2.804306578636169434e+01,-1.424549937248229980e+00,-8.599972724914549005e+00,4.146757125854491299e+00,-3.723144531250000000e+00,-3.051757812500000000e-01,1.319885253906250000e+00
2.805762410163879395e+01,-1.426944136619568093e+00,-8.659827232360839844e+00,4.146757125854491299e+00,-3.761291503906250000e+00,-1.296997070312500000e-01,9.002685546875000000e-01
2.807172942161560059e+01,-1.448492050170898438e+00,-8.599972724914549005e+00,4.146757125854491299e+00,-3.723144531250000000e+00,9.307861328125000000e-01,9.002685546875000000e-01
2.808385396003723145e+01,-1.448492050170898438e+00,-8.676587104797361505e+00,3.988739967346191850e+00,-3.761291503906250000e+00,9.307861328125000000e-01,1.701354980468750000e+00
2.809905147552490234e+01,-1.448492050170898438e+00,-8.707711219787597656e+00,3.988739967346191850e+00,-4.325866699218750000e+00,9.307861328125000000e-01,1.701354980468750000e+00
2.811328005790710449e+01,-1.515529632568359375e+00,-8.707711219787597656e+00,4.039018154144287109e+00,-4.325866699218750000e+00,3.662109375000000000e-01,1.075744628906250000e+00
2.812644147872924805e+01,-1.515529632568359375e+00,-8.379705429077146661e+00,4.070142745971680576e+00,-3.677368164062500000e+00,3.662109375000000000e-01,1.075744628906250000e+00
2.813840103149414062e+01,-1.539471626281738503e+00,-8.245630264282228339e+00,4.039018154144287109e+00,-3.211975097656250000e+00,-3.662109375000000000e-01,1.121520996093750000e+00
2.815538573265075684e+01,-1.379060149192810059e+00,-8.190564155578611505e+00,3.773261785507201704e+00,-3.211975097656250000e+00,-3.662109375000000000e-01,1.144409179687500000e+00
2.816656327247619629e+01,-1.448492050170898438e+00,-8.245630264282228339e+00,3.773261785507201704e+00,-3.211975097656250000e+00,-1.144409179687500000e-01,1.121520996093750000e+00
2.817988872528076172e+01,-1.422155737876891868e+00,-8.415618896484375000e+00,4.132391929626464844e+00,-2.937316894531250000e+00,-1.144409179687500000e-01,1.045227050781250000e+00
2.819749712944030762e+01,-1.424549937248229980e+00,-8.434772491455076349e+00,4.173093318939208984e+00,-2.937316894531250000e+00,-1.144409179687500000e-01,1.045227050781250000e+00
2.820827388763427734e+01,-1.422155737876891868e+00,-8.769960403442382812e+00,4.173093318939208984e+00,-3.417968750000000000e+00,-9.918212890625000000e-02,1.045227050781250000e+00
2.822267150878906250e+01,-1.424549937248229980e+00,-8.995016098022460938e+00,4.106055736541748047e+00,-3.417968750000000000e+00,-9.918212890625000000e-02,7.324218750000000000e-01
2.823805308341979980e+01,-1.460463047027588113e+00,-8.995016098022460938e+00,4.106055736541748047e+00,-3.417968750000000000e+00,-1.602172851562500000e-01,6.790161132812500000e-01
2.824942374229431152e+01,-1.568202137947082297e+00,-8.671798706054687500e+00,4.041412353515625000e+00,-3.463745117187500000e+00,-1.602172851562500000e-01,7.324218750000000000e-01
2.826169180870056152e+01,-1.568202137947082297e+00,-8.382100105285644531e+00,3.967192173004150391e+00,-4.516601562500000000e+00,6.408691406250000000e-01,1.258850097656250000e+00
2.827678036689758301e+01,-1.429338335990905762e+00,-8.312667846679687500e+00,3.919308185577392578e+00,-4.516601562500000000e+00,6.408691406250000000e-01,1.640319824218750000e+00
2.829191923141479492e+01,-1.407790541648864746e+00,-8.238448143005371094e+00,3.967192173004150391e+00,-4.516601562500000000e+00,-1.144409179687500000e+00,1.640319824218750000e+00
2.830324387550354004e+01,-1.429338335990905762e+00,-8.238448143005371094e+00,3.840299367904663086e+00,-4.959106445312500000e+00,-1.144409179687500000e+00,1.487731933593750000e+00
2.831835985183715820e+01,-1.407790541648864746e+00,-8.769960403442382812e+00,4.007893562316895419e+00,-4.959106445312500000e+00,-3.890991210937500000e-01,1.159667968750000000e+00
2.833066296577453613e+01,-1.359906554222106934e+00,-8.769960403442382812e+00,4.139574527740479404e+00,-4.776000976562500000e+00,-3.890991210937500000e-01,1.159667968750000000e+00
2.834487390518188477e+01,-1.347935557365417703e+00,-8.638279914855957031e+00,4.244919776916503906e+00,-3.410339355468750000e+00,-3.890991210937500000e-01,8.773803710937500000e-01
2.835696029663085938e+01,-1.347935557365417703e+00,-8.585607528686521661e+00,4.244919776916503906e+00,-3.410339355468750000e+00,1.739501953125000000e+00,1.434326171875000000e+00
2.837248754501342773e+01,-1.364694952964782715e+00,-8.585607528686521661e+00,3.847481966018676758e+00,-4.241943359375000000e+00,1.739501953125000000e+00,1.457214355468750000e+00
2.838430905342102051e+01,-1.486799240112304910e+00,-8.231265068054200995e+00,3.847481966018676758e+00,-4.241943359375000000e+00,-6.103515625000000000e-02,1.457214355468750000e+00
2.839959430694580078e+01,-1.630451321601867676e+00,-8.437166213989257812e+00,3.801992177963256836e+00,-4.241943359375000000e+00,-6.103515625000000000e-02,3.814697265625000000e-01
2.841437673568725586e+01,-1.580173134803771973e+00,-8.403647422790527344e+00,3.988739967346191850e+00,-4.837036132812500000e+00,-6.103515625000000000e-02,3.814697265625000000e-01
2.843419837951660156e+01,-1.580173134803771973e+00,-8.437166213989257812e+00,4.144362926483153409e+00,-4.890441894531250000e+00,-6.332397460937500000e-01,1.129150390625000000e+00
2.844489908218383789e+01,-1.395819544792175293e+00,-8.762778282165527344e+00,4.144362926483153409e+00,-5.142211914062500000e+00,-6.332397460937500000e-01,1.617431640625000000e+00
2.845598363876342773e+01,-1.395819544792175293e+00,-8.762778282165527344e+00,4.230554103851318359e+00,-4.890441894531250000e+00,-3.509521484375000000e-01,1.129150390625000000e+00
2.846829557418823242e+01,-1.455674648284911887e+00,-8.566453933715820312e+00,4.103661537170410156e+00,-3.341674804687500000e+00,-5.340576171875000000e-02,1.617431640625000000e+00
2.848057508468627930e+01,-1.467645645141601562e+00,-8.446743011474611151e+00,4.230554103851318359e+00,-3.341674804687500000e+00,6.713867187500000000e-01,4.959106445312500000e-01
2.849584960937500000e+01,-1.470039844512939675e+00,-8.446743011474611151e+00,4.103661537170410156e+00,-4.333496093750000000e+00,6.332397460937500000e-01,-1.831054687500000000e-01
2.850687193870544434e+01,-1.467645645141601562e+00,-8.815450668334960938e+00,3.684676408767700195e+00,-4.333496093750000000e+00,6.332397460937500000e-01,-1.831054687500000000e-01
2.852194261550903320e+01,-1.453280448913574219e+00,-8.815450668334960938e+00,3.684676408767700195e+00,-4.089355468750000000e+00,-1.167297363281250000e+00,2.258300781250000000e+00
2.853765058517456055e+01,-1.355118155479431152e+00,-8.595184326171875000e+00,4.168304920196533203e+00,-4.089355468750000000e+00,-1.167297363281250000e+00,2.258300781250000000e+00
2.854872393608093262e+01,-1.355118155479431152e+00,-8.595184326171875000e+00,4.168304920196533203e+00,-4.348754882812500000e+00,-1.167297363281250000e+00,1.037597656250000000e+00
2.856450796127319336e+01,-1.235408067703247070e+00,-8.906430244445800781e+00,4.168304920196533203e+00,-4.348754882812500000e+00,-1.770019531250000000e+00,1.037597656250000000e+00
2.857869362831115723e+01,-1.276109457015991211e+00,-8.906430244445800781e+00,3.926490783691406250e+00,-2.403259277343750000e+00,-1.770019531250000000e+00,1.037597656250000000e+00
2.859140372276306152e+01,-1.276109457015991211e+00,-8.599972724914549005e+00,3.926490783691406250e+00,-2.403259277343750000e+00,4.577636718750000000e-02,5.569458007812500000e-01
2.860298204421997070e+01,-1.443703651428222878e+00,-8.599972724914549005e+00,3.926490783691406250e+00,-8.468627929687500000e+00,4.577636718750000000e-02,5.569458007812500000e-01
2.862035417556762695e+01,-1.443703651428222878e+00,-8.643068313598632812e+00,3.792415380477904829e+00,-8.468627929687500000e+00,4.577636718750000000e-02,1.861572265625000000e+00
2.863337302207946777e+01,-1.443703651428222878e+00,-8.643068313598632812e+00,4.350264549255371094e+00,-3.097534179687500000e+00,1.335144042968750000e+00,1.861572265625000000e+00
2.864524388313293457e+01,-1.371877551078796387e+00,-8.370128631591798651e+00,4.350264549255371094e+00,-3.097534179687500000e+00,1.335144042968750000e+00,4.348754882812500000e-01
2.866267681121826172e+01,-1.493981838226318359e+00,-8.370128631591798651e+00,4.350264549255371094e+00,-6.813049316406250000e+00,1.525878906250000000e-01,4.348754882812500000e-01
2.867379689216613770e+01,-1.493981838226318359e+00,-8.370128631591798651e+00,4.733336448669433594e+00,-6.813049316406250000e+00,-1.304626464843750000e+00,1.792907714843750000e+00
2.868716096878051758e+01,-1.493981838226318359e+00,-8.599972724914549005e+00,4.082113742828368252e+00,-2.670288085937500000e-01,-1.304626464843750000e+00,1.846313476562500000e+00
2.870442318916320801e+01,-1.393425345420837402e+00,-8.599972724914549005e+00,4.082113742828368252e+00,-2.670288085937500000e-01,-1.678466796875000000e-01,1.846313476562500000e+00
2.871535634994506836e+01,-1.393425345420837402e+00,-8.734047889709472656e+00,4.060565948486328125e+00,-5.973815917968750000e+00,-1.678466796875000000e-01,2.975463867187500000e-01
2.872957468032836914e+01,-1.393425345420837402e+00,-8.848969459533691406e+00,3.708618402481078657e+00,-5.973815917968750000e+00,-1.983642578125000000e-01,2.975463867187500000e-01
2.874329400062561035e+01,-1.546654224395751953e+00,-8.848969459533691406e+00,3.988739967346191850e+00,-3.471374511718750000e+00,-9.384155273437500000e-01,5.111694335937500000e-01
2.875660848617553711e+01,-1.467645645141601562e+00,-8.140285491943361151e+00,3.988739967346191850e+00,-3.471374511718750000e+00,-1.190185546875000000e+00,1.060485839843750000e+00
2.876893639564514160e+01,-1.467645645141601562e+00,-8.140285491943361151e+00,3.988739967346191850e+00,-5.378723144531250000e+00,-1.190185546875000000e+00,1.853942871093750000e+00
2.878538560867309570e+01,-1.467645645141601562e+00,-8.489839553833007812e+00,3.603273391723633257e+00,-5.378723144531250000e+00,8.697509765625000000e-01,1.853942871093750000e+00
2.879623627662658691e+01,-1.477222442626953125e+00,-8.489839553833007812e+00,3.603273391723633257e+00,-5.218505859375000000e+00,8.697509765625000000e-01,9.231567382812500000e-01
2.881013393402099609e+01,-1.477222442626953125e+00,-8.801085472106933594e+00,4.091690540313721591e+00,-5.218505859375000000e+00,-9.536743164062500000e-01,9.231567382812500000e-01
2.882754540443420410e+01,-1.388636946678161621e+00,-8.801085472106933594e+00,4.091690540313721591e+00,-5.218505859375000000e+00,-9.536743164062500000e-01,1.052856445312500000e+00
2.883813500404357910e+01,-1.388636946678161621e+00,-8.801085472106933594e+00,4.091690540313721591e+00,-4.432678222656250000e+00,-6.790161132812500000e-01,1.052856445312500000e+00
2.885264325141906738e+01,-1.388636946678161621e+00,-8.525752067565917969e+00,4.029441356658936435e+00,-4.432678222656250000e+00,-6.790161132812500000e-01,1.052856445312500000e+00
2.886518263816833496e+01,-1.616086125373840332e+00,-8.384493827819824219e+00,4.029441356658936435e+00,-4.432678222656250000e+00,-8.544921875000000000e-01,2.159118652343750000e+00
2.887983918190002441e+01,-1.364694952964782715e+00,-8.525752067565917969e+00,4.029441356658936435e+00,-6.210327148437500000e+00,-8.544921875000000000e-01,2.159118652343750000e+00
2.889471721649169922e+01,-1.580173134803771973e+00,-8.595184326171875000e+00,3.940855979919433594e+00,-3.952026367187500000e+00,1.113891601562500000e+00,1.464843750000000000e+00
2.890702176094055176e+01,-1.379060149192810059e+00,-8.595184326171875000e+00,4.185064315795897549e+00,-4.478454589843750000e+00,1.113891601562500000e+00,6.561279296875000000e-01
2.892185926437377930e+01,-1.379060149192810059e+00,-8.817844390869140625e+00,3.859452962875366211e+00,-4.478454589843750000e+00,2.136230468750000000e-01,6.561279296875000000e-01
2.893306398391723633e+01,-1.379060149192810059e+00,-8.693346023559570312e+00,4.185064315795897549e+00,-4.776000976562500000e+00,2.136230468750000000e-01,1.060485839843750000e+00
2.894797730445861816e+01,-1.589749932289123535e+00,-8.817844390869140625e+00,4.168304920196533203e+00,-5.981445312500000000e+00,5.264282226562500000e-01,1.060485839843750000e+00
2.896014285087585449e+01,-1.589749932289123535e+00,-8.851363182067871094e+00,4.168304920196533203e+00,-4.936218261718750000e+00,5.264282226562500000e-01,9.460449218750000000e-01
2.897528266906738281e+01,-1.716642618179321289e+00,-8.851363182067871094e+00,4.168304920196533203e+00,-5.180358886718750000e+00,-6.027221679687500000e-01,6.713867187500000000e-01
2.899088501930236816e+01,-1.426944136619568093e+00,-8.532935142517089844e+00,4.137180328369141513e+00,-5.180358886718750000e+00,-1.129150390625000000e+00,9.460449218750000000e-01
2.900162816047668457e+01,-1.541865825653076172e+00,-8.532935142517089844e+00,4.137180328369141513e+00,-5.180358886718750000e+00,-1.129150390625000000e+00,1.617431640625000000e+00
2.901777815818786621e+01,-1.541865825653076172e+00,-8.480262756347656250e+00,4.137180328369141513e+00,-6.645202636718750000e+00,2.212524414062500000e-01,1.617431640625000000e+00
2.902930903434753418e+01,-1.556231021881103516e+00,-8.640673637390138495e+00,3.876212596893310991e+00,-6.645202636718750000e+00,2.212524414062500000e-01,2.174377441406250000e+00
2.904399466514587402e+01,-1.556231021881103516e+00,-8.640673637390138495e+00,4.187458515167236328e+00,-6.645202636718750000e+00,-1.502990722656250000e+00,8.010864257812500000e-01
2.905601596832275391e+01,-1.556231021881103516e+00,-8.640673637390138495e+00,4.187458515167236328e+00,-6.813049316406250000e+00,-1.502990722656250000e+00,8.010864257812500000e-01
2.907112312316894531e+01,-1.460463047027588113e+00,-8.841786384582519531e+00,4.187458515167236328e+00,-5.035400390625000000e+00,-8.163452148437500000e-01,8.010864257812500000e-01
2.908683490753173828e+01,-1.460463047027588113e+00,-8.437166213989257812e+00,4.309563159942626953e+00,-5.073547363281250000e+00,-2.517700195312500000e-01,1.625061035156250000e+00
2.909784650802612305e+01,-1.460463047027588113e+00,-8.611943244934082031e+00,3.895366191864013672e+00,-5.073547363281250000e+00,-5.874633789062500000e-01,2.220153808593750000e+00
2.911278033256530762e+01,-1.407790541648864746e+00,-8.611943244934082031e+00,3.938461780548096147e+00,-7.308959960937500000e+00,-5.874633789062500000e-01,2.220153808593750000e+00
2.912600445747375488e+01,-1.407790541648864746e+00,-8.611943244934082031e+00,3.938461780548096147e+00,-7.583618164062500000e+00,-2.769470214843750000e+00,2.456665039062500000e+00
2.914061999320983887e+01,-1.189918279647827148e+00,-8.719682693481445312e+00,4.077325344085693359e+00,-7.659912109375000000e+00,-2.769470214843750000e+00,2.555847167968750000e+00
2.915204524993896484e+01,-1.003170490264892578e+00,-8.762778282165527344e+00,4.256890773773193359e+00,-9.490966796875000000e+00,-2.769470214843750000e+00,2.456665039062500000e+00
2.916806960105895996e+01,-1.003170490264892578e+00,-8.853757858276367188e+00,4.077325344085693359e+00,-9.490966796875000000e+00,-2.632141113281250000e+00,2.555847167968750000e+00
2.917881751060485840e+01,-1.149216771125793679e+00,-9.023746490478515625e+00,3.979163169860839844e+00,-9.841918945312500000e+00,-2.357482910156250000e+00,2.494812011718750000e+00
2.919400978088378906e+01,-1.149216771125793679e+00,-9.028534889221193183e+00,3.979163169860839844e+00,-9.857177734375000000e+00,-2.265930175781250000e+00,2.494812011718750000e+00
2.921073460578918457e+01,-1.163581967353820801e+00,-9.270348548889160156e+00,3.775655984878540039e+00,-1.000213623046875000e+01,-2.357482910156250000e+00,9.460449218750000000e-01
2.922164201736450195e+01,-1.163581967353820801e+00,-9.270348548889160156e+00,3.612850189208983931e+00,-1.000213623046875000e+01,-1.342773437500000000e+00,2.441406250000000000e-01
2.923598837852478027e+01,-1.489193439483642578e+00,-8.798690795898437500e+00,3.612850189208983931e+00,-1.020812988281250000e+01,-8.010864257812500000e-01,-9.231567382812500000e-01
2.925070333480834961e+01,-1.740584611892700195e+00,-8.791508674621582031e+00,3.612850189208983931e+00,-1.274108886718750000e+01,-8.010864257812500000e-01,-1.266479492187500000e+00
2.926261091232299805e+01,-1.762132406234741211e+00,-8.710105895996093750e+00,3.806780576705932617e+00,-1.274108886718750000e+01,1.220703125000000000e-01,-1.266479492187500000e+00
2.927580356597900391e+01,-1.838746905326843706e+00,-8.710105895996093750e+00,3.418920040130615234e+00,-1.225280761718750000e+01,-1.182556152343750000e+00,-1.075744628906250000e+00
2.929283261299133301e+01,-1.795651197433471680e+00,-8.710105895996093750e+00,3.627215623855591264e+00,-1.206970214843750000e+01,-1.243591308593750000e+00,-8.544921875000000000e-01
2.930348539352416992e+01,-1.795651197433471680e+00,-8.686163902282714844e+00,3.627215623855591264e+00,-1.206970214843750000e+01,-1.396179199218750000e+00,6.790161132812500000e-01
2.931657814979553223e+01,-1.484405040740966797e+00,-8.686163902282714844e+00,3.895366191864013672e+00,-1.264953613281250000e+01,-1.396179199218750000e+00,2.029418945312500000e+00
2.933488392829895020e+01,-1.400607943534850852e+00,-8.865728378295898438e+00,3.895366191864013672e+00,-1.264953613281250000e+01,-1.396179199218750000e+00,2.723693847656250000e+00
2.934587073326110840e+01,-1.189918279647827148e+00,-8.889670372009277344e+00,3.792415380477904829e+00,-1.264953613281250000e+01,-1.869201660156250000e+00,3.067016601562500000e+00
2.935903811454772949e+01,-1.228225469589233398e+00,-9.131484985351562500e+00,3.751713991165161133e+00,-1.317596435546875000e+01,-2.288818359375000000e+00,3.067016601562500000e+00
2.937366056442260742e+01,-1.228225469589233398e+00,-9.131484985351562500e+00,3.751713991165161133e+00,-1.329040527343750000e+01,-1.869201660156250000e+00,1.678466796875000000e+00
2.938580989837646484e+01,-1.460463047027588113e+00,-9.131484985351562500e+00,3.526659011840820312e+00,-1.440429687500000000e+01,-1.770019531250000000e+00,1.129150390625000000e+00
2.940116047859191895e+01,-1.644816517829895020e+00,-8.853757858276367188e+00,3.442862033843993697e+00,-1.440429687500000000e+01,-1.770019531250000000e+00,1.129150390625000000e+00
2.941531372070312500e+01,-1.644816517829895020e+00,-8.853757858276367188e+00,3.442862033843993697e+00,-1.436614990234375000e+01,-1.029968261718750000e+00,2.990722656250000000e+00
2.942804527282714844e+01,-1.292868852615356445e+00,-8.853757858276367188e+00,3.442862033843993697e+00,-1.316070556640625000e+01,-2.738952636718750000e+00,2.990722656250000000e+00
2.943974304199218750e+01,-1.247379064559936301e+00,-8.834604263305664062e+00,3.459621429443359819e+00,-1.316070556640625000e+01,-2.738952636718750000e+00,2.990722656250000000e+00
2.945761346817016602e+01,-1.247379064559936301e+00,-9.030928611755372870e+00,3.459621429443359819e+00,-1.316070556640625000e+01,-2.738952636718750000e+00,2.075195312500000000e+00
2.947078704833984375e+01,-1.331176161766052246e+00,-9.016563415527343750e+00,3.459621429443359819e+00,-1.302337646484375000e+01,-2.456665039062500000e+00,2.075195312500000000e+00
2.948264360427856445e+01,-1.482010841369629128e+00,-9.016563415527343750e+00,3.383007049560546875e+00,-1.328277587890625000e+01,-1.899719238281250000e+00,1.564025878906250000e+00
2.949672126770019531e+01,-1.482010841369629128e+00,-9.016563415527343750e+00,3.383007049560546875e+00,-1.328277587890625000e+01,-1.869201660156250000e+00,1.564025878906250000e+00
2.950871825218200684e+01,-1.347935557365417703e+00,-9.124302864074707031e+00,3.383007049560546875e+00,-1.328277587890625000e+01,-1.312255859375000000e+00,1.823425292968750000e+00
2.952404713630676270e+01,-1.347935557365417703e+00,-9.124302864074707031e+00,3.292027235031127930e+00,-1.359558105468750000e+01,-1.617431640625000000e+00,1.823425292968750000e+00
2.953573775291442871e+01,-1.774103403091430886e+00,-8.829815864562988281e+00,3.292027235031127930e+00,-1.540374755859375000e+01,-1.617431640625000000e+00,-1.831054687500000000e-01
2.955144381523132324e+01,-1.774103403091430886e+00,-8.829815864562988281e+00,3.464409828186035156e+00,-1.552581787109375000e+01,-1.617431640625000000e+00,-1.831054687500000000e-01
2.956364345550537109e+01,-1.486799240112304910e+00,-8.978256225585937500e+00,3.464409828186035156e+00,-1.667022705078125000e+01,4.272460937500000000e-01,1.281738281250000000e+00
2.957831120491027832e+01,-1.424549937248229980e+00,-9.172186851501463067e+00,3.399766445159912109e+00,-1.667022705078125000e+01,4.272460937500000000e-01,1.281738281250000000e+00
2.959012818336486816e+01,-1.424549937248229980e+00,-9.172186851501463067e+00,3.296815633773804155e+00,-1.676940917968750000e+01,4.272460937500000000e-01,-1.144409179687500000e-01
2.960503292083740234e+01,-1.810016512870788796e+00,-8.975861549377441406e+00,3.260902643203735796e+00,-1.779174804687500000e+01,7.629394531250000000e-02,-1.548767089843750000e+00
2.961959600448608398e+01,-1.810016512870788796e+00,-8.975861549377441406e+00,3.296815633773804155e+00,-1.779174804687500000e+01,4.501342773437500000e-01,-1.548767089843750000e+00
2.963280701637268066e+01,-1.333570361137389915e+00,-9.210494041442872870e+00,3.260902643203735796e+00,-1.779174804687500000e+01,3.662109375000000000e-01,-1.312255859375000000e+00
2.964769244194030762e+01,-1.333570361137389915e+00,-9.210494041442872870e+00,3.220201253890991211e+00,-1.776123046875000000e+01,4.501342773437500000e-01,-1.113891601562500000e+00
2.965930867195129395e+01,-1.546654224395751953e+00,-9.023746490478515625e+00,3.220201253890991211e+00,-1.776123046875000000e+01,3.662109375000000000e-01,-2.593994140625000000e-01
2.967418837547302246e+01,-1.580173134803771973e+00,-9.023746490478515625e+00,3.220201253890991211e+00,-1.690673828125000000e+01,5.950927734375000000e-01,1.258850097656250000e+00
2.968587851524353027e+01,-1.546654224395751953e+00,-9.121908187866212714e+00,3.086125850677490234e+00,-1.435089111328125000e+01,-6.866455078125000000e-02,1.258850097656250000e+00
2.970101118087768555e+01,-1.474828243255615234e+00,-9.121908187866212714e+00,2.935291290283203125e+00,-1.435089111328125000e+01,-6.103515625000000000e-02,-7.553100585937500000e-01
2.971719336509704590e+01,-1.438915252685546875e+00,-9.121908187866212714e+00,2.935291290283203125e+00,-1.557922363281250000e+01,-6.103515625000000000e-02,-7.553100585937500000e-01
2.972808575630187988e+01,-1.453280448913574219e+00,-9.229647636413574219e+00,2.935291290283203125e+00,-1.576995849609375000e+01,7.705688476562500000e-01,-2.593994140625000000e-01
2.974382925033569336e+01,-1.453280448913574219e+00,-9.229647636413574219e+00,2.980781078338623047e+00,-1.557922363281250000e+01,1.060485839843750000e+00,7.629394531250000000e-02
2.975581526756286621e+01,-1.479616641998291016e+00,-9.229647636413574219e+00,2.724601507186889648e+00,-1.522827148437500000e+01,7.705688476562500000e-01,3.204345703125000000e-01
2.977043485641479492e+01,-1.479616641998291016e+00,-9.167398452758787286e+00,2.980781078338623047e+00,-1.522827148437500000e+01,6.027221679687500000e-01,8.621215820312500000e-01
2.978233265876770020e+01,-1.458068847656250000e+00,-9.232041358947753906e+00,2.724601507186889648e+00,-1.675415039062500000e+01,3.128051757812500000e-01,6.790161132812500000e-01
2.979778456687927246e+01,-1.436521053314208984e+00,-9.179368972778320312e+00,2.980781078338623047e+00,-1.675415039062500000e+01,5.645751953125000000e-01,8.621215820312500000e-01
2.980965542793273926e+01,-1.458068847656250000e+00,-9.179368972778320312e+00,2.980781078338623047e+00,-1.675415039062500000e+01,4.425048828125000000e-01,1.472473144531250000e+00
2.982380104064941406e+01,-1.525106430053710938e+00,-9.179368972778320312e+00,2.980781078338623047e+00,-1.818084716796875000e+01,4.425048828125000000e-01,2.349853515625000000e+00
2.984003376960754395e+01,-1.541865825653076172e+00,-9.184157371520996094e+00,2.877830505371093750e+00,-1.818084716796875000e+01,0.000000000000000000e+00,1.472473144531250000e+00
2.985060858726501465e+01,-1.541865825653076172e+00,-9.184157371520996094e+00,2.837128877639770508e+00,-1.826477050781250000e+01,-1.525878906250000000e-01,1.403808593750000000e+00
2.986559295654296875e+01,-1.541865825653076172e+00,-9.246406555175779474e+00,2.825157880783081055e+00,-1.741027832031250000e+01,0.000000000000000000e+00,1.396179199218750000e+00
2.988037109375000000e+01,-1.549048423767089844e+00,-9.167398452758787286e+00,2.530671119689941406e+00,-1.741027832031250000e+01,3.662109375000000000e-01,1.396179199218750000e+00
2.989324378967285156e+01,-1.549048423767089844e+00,-9.167398452758787286e+00,2.825157880783081055e+00,-1.741027832031250000e+01,8.316040039062500000e-01,2.044677734375000000e+00
2.990849995613098145e+01,-1.659181714057922363e+00,-9.167398452758787286e+00,2.712630510330200195e+00,-1.724243164062500000e+01,1.502990722656250000e+00,2.044677734375000000e+00
2.992256212234497070e+01,-1.659181714057922363e+00,-9.411606788635253906e+00,2.712630510330200195e+00,-1.724243164062500000e+01,2.197265625000000000e+00,3.150939941406250000e+00
2.993570089340209961e+01,-1.563413739204406738e+00,-9.411606788635253906e+00,2.633621931076049805e+00,-1.724243164062500000e+01,1.693725585937500000e+00,2.319335937500000000e+00
2.994766998291015625e+01,-1.537077426910400391e+00,-9.153033256530761719e+00,2.547430515289306197e+00,-1.648712158203125000e+01,2.388000488281250000e+00,2.319335937500000000e+00
2.996469569206237793e+01,-1.395819544792175293e+00,-9.153033256530761719e+00,2.621650934219360352e+00,-1.795959472656250000e+01,2.388000488281250000e+00,2.288818359375000000e+00
2.997512197494506836e+01,-1.395819544792175293e+00,-9.263166427612304688e+00,2.547430515289306197e+00,-1.844024658203125000e+01,3.173828125000000000e+00,2.288818359375000000e+00
2.998887562751770020e+01,-1.580173134803771973e+00,-9.485827445983886719e+00,2.312798738479614258e+00,-1.844024658203125000e+01,3.471374511718750000e+00,2.204895019531250000e+00
3.000360083580017090e+01,-1.580173134803771973e+00,-9.591172218322753906e+00,2.272097349166870117e+00,-1.844024658203125000e+01,3.173828125000000000e+00,2.204895019531250000e+00
3.001657032966613770e+01,-1.216254472732543945e+00,-9.485827445983886719e+00,2.312798738479614258e+00,-1.911926269531250000e+01,3.929138183593750000e+00,1.274108886718750000e+00
3.003060960769653320e+01,-1.130063176155090332e+00,-9.591172218322753906e+00,2.272097349166870117e+00,-2.117156982421875000e+01,2.861022949218750000e+00,-8.621215820312500000e-01
3.004605698585510254e+01,-1.216254472732543945e+00,-9.397241592407226562e+00,1.927332282066344771e+00,-2.117156982421875000e+01,3.074645996093750000e+00,1.205444335937500000e+00
3.005795884132385254e+01,-1.948880195617676003e+00,-9.397241592407226562e+00,1.927332282066344771e+00,-2.117156982421875000e+01,3.074645996093750000e+00,1.205444335937500000e+00
3.007022094726562500e+01,-2.056619167327880859e+00,-9.397241592407226562e+00,2.274491548538208008e+00,-2.353668212890625000e+01,4.188537597656250000e+00,1.205444335937500000e+00
3.008796405792236328e+01,-2.056619167327880859e+00,-9.397241592407226562e+00,2.274491548538208008e+00,-2.202606201171875000e+01,6.813049316406250000e+00,3.067016601562500000e+00
3.009905123710632324e+01,-2.027888774871825728e+00,-9.619902610778806817e+00,2.032677173614501953e+00,-2.202606201171875000e+01,5.210876464843750000e+00,7.781982421875000000e-01
3.011243772506713867e+01,-1.889025092124938965e+00,-9.619902610778806817e+00,1.946485996246338113e+00,-2.020263671875000000e+01,5.401611328125000000e+00,7.781982421875000000e-01
3.012445306777954102e+01,-1.470039844512939675e+00,-9.370904922485351562e+00,1.946485996246338113e+00,-2.011871337890625000e+01,5.401611328125000000e+00,4.196166992187500000e-01
3.013886857032775879e+01,-1.470039844512939675e+00,-9.370904922485351562e+00,1.946485996246338113e+00,-1.959228515625000000e+01,5.531311035156250000e+00,1.144409179687500000e-01
3.015086722373962402e+01,-1.692700624465942383e+00,-9.373299598693847656e+00,1.951274394989013672e+00,-1.959228515625000000e+01,5.531311035156250000e+00,4.196166992187500000e-01
3.016611599922180176e+01,-1.721431016921996848e+00,-9.442730903625488281e+00,1.908178687095641868e+00,-1.937103271484375000e+01,5.531311035156250000e+00,5.035400390625000000e-01
3.018620467185974121e+01,-1.735796213150024414e+00,-9.493009567260742188e+00,1.719036817550659180e+00,-1.896667480468750000e+01,5.439758300781250000e+00,5.035400390625000000e-01
3.019698524475097656e+01,-1.721431016921996848e+00,-9.493009567260742188e+00,1.719036817550659180e+00,-1.896667480468750000e+01,5.439758300781250000e+00,-1.441955566406250000e+00
3.020734643936157227e+01,-1.900996088981628418e+00,-9.366116523742675781e+00,1.824381709098815918e+00,-2.033233642578125000e+01,5.439758300781250000e+00,-1.441955566406250000e+00
3.021952605247497559e+01,-1.637633919715881126e+00,-9.366116523742675781e+00,1.824381709098815918e+00,-2.033233642578125000e+01,5.027770996093750000e+00,-1.441955566406250000e+00
3.023455953598022461e+01,-1.637633919715881126e+00,-9.392453193664550781e+00,1.800439596176147683e+00,-2.035522460937500000e+01,5.027770996093750000e+00,-2.746582031250000000e+00
3.024713826179504395e+01,-1.319205164909362793e+00,-9.543288230895996094e+00,1.654393315315246582e+00,-2.035522460937500000e+01,5.027770996093750000e+00,-2.746582031250000000e+00
3.026173210144042969e+01,-1.319205164909362793e+00,-9.543288230895996094e+00,1.654393315315246582e+00,-2.173614501953125000e+01,6.774902343750000000e+00,-2.914428710937500000e+00
3.027479529380798340e+01,-1.472434043884277122e+00,-9.543288230895996094e+00,1.618480324745178223e+00,-2.246093750000000000e+01,6.774902343750000000e+00,-3.730773925781250000e+00
3.028908944129943848e+01,-1.498770236968993919e+00,-9.545681953430175781e+00,1.412578940391540305e+00,-2.246093750000000000e+01,5.546569824218750000e+00,-3.730773925781250000e+00
3.030025434494018555e+01,-1.778891801834106445e+00,-9.519346237182617188e+00,1.412578940391540305e+00,-2.136993408203125000e+01,5.172729492187500000e+00,-3.036499023437500000e+00
3.031664443016052246e+01,-1.872265696525573508e+00,-9.545681953430175781e+00,1.680729508399963379e+00,-2.033996582031250000e+01,4.302978515625000000e+00,-2.716064453125000000e+00
3.033270144462585449e+01,-1.872265696525573508e+00,-9.557653427124023438e+00,1.680729508399963379e+00,-1.860046386718750000e+01,3.555297851562500000e+00,-2.716064453125000000e+00
3.034360980987548828e+01,-1.589749932289123535e+00,-9.557653427124023438e+00,1.156399369239807129e+00,-1.804351806640625000e+01,3.364562988281250000e+00,-3.417968750000000000e+00
3.035869979858398438e+01,-1.424549937248229980e+00,-9.868899345397949219e+00,1.156399369239807129e+00,-1.603698730468750000e+01,3.364562988281250000e+00,-3.417968750000000000e+00
3.037120270729064941e+01,-1.424549937248229980e+00,-9.591172218322753906e+00,1.563413739204406738e+00,-1.603698730468750000e+01,3.059387207031250000e+00,-2.151489257812500000e+00
3.038606858253479004e+01,-1.304839849472045898e+00,-9.646238327026367188e+00,1.563413739204406738e+00,-1.619720458984375000e+01,3.623962402343750000e+00,-1.190185546875000000e+00
3.039788365364074707e+01,-1.580173134803771973e+00,-9.646238327026367188e+00,1.513135433197021706e+00,-2.108764648437500000e+01,3.273010253906250000e+00,-2.151489257812500000e+00
3.041139268875122070e+01,-8.379705548286437988e-01,-9.727641105651855469e+00,8.140285611152648926e-01,-2.108764648437500000e+01,3.273010253906250000e+00,-2.059936523437500000e+00
3.042802500724792480e+01,-1.201889276504516602e+00,-9.727641105651855469e+00,8.140285611152648926e-01,-2.039337158203125000e+01,3.158569335937500000e+00,-2.059936523437500000e+00
3.043912577629089355e+01,-1.201889276504516602e+00,-9.727641105651855469e+00,1.647210717201233132e+00,-1.929473876953125000e+01,3.158569335937500000e+00,-1.052856445312500000e+00
3.045491766929626465e+01,-1.201889276504516602e+00,-9.780313491821287286e+00,1.647210717201233132e+00,-1.634216308593750000e+01,4.287719726562500000e+00,-1.052856445312500000e+00
3.046700501441955566e+01,-1.106121182441711426e+00,-1.015141487121582031e+01,1.723825186491012573e-01,-1.564025878906250000e+01,6.446838378906250000e+00,-1.052856445312500000e+00
3.048195886611938477e+01,-1.106121182441711426e+00,-1.015141487121582031e+01,1.723825186491012573e-01,-1.564025878906250000e+01,4.287719726562500000e+00,1.176452636718750000e+02
3.049317193031311035e+01,8.159439086914062500e+00,6.919242739677429199e-01,1.961270141601562500e+01,2.499923706054687500e+02,6.599426269531250000e+01,1.176452636718750000e+02
3.051063728332519531e+01,-8.224082946777343750e+00,6.919242739677429199e-01,1.961270141601562500e+01,-1.061325073242187642e+02,8.674621582031250000e+00,-3.288269042968750000e+00
3.052090883255004883e+01,-8.856151580810546875e+00,-3.677493810653687412e+00,6.758831501007080078e+00,-1.061325073242187642e+02,8.674621582031250000e+00,-3.288269042968750000e+00
3.053533744812011719e+01,-8.856151580810546875e+00,-1.546654319763183594e+01,7.062894701957702637e-01,-1.061325073242187642e+02,7.369995117187500000e+00,-3.288269042968750000e+00
3.055239748954772949e+01,-4.378994941711426669e+00,-1.546654319763183594e+01,7.062894701957702637e-01,3.884887695312500000e+01,-2.539062500000000000e+01,4.531860351562500000e+00
3.056303119659423828e+01,2.777273952960968018e-01,-1.175792407989501953e+01,2.274491548538208008e+00,4.895019531250000000e+01,5.256652832031250000e+00,-2.548217773437500000e+01
3.057712292671203613e+01,4.802768707275391513e+00,-5.434837818145751953e+00,6.004657745361327237e+00,4.895019531250000000e+01,1.647949218750000000e+00,4.531860351562500000e+00
3.059160256385803223e+01,2.777273952960968018e-01,-5.434837818145751953e+00,6.004657745361327237e+00,-1.541137695312500000e+01,5.256652832031250000e+00,2.432250976562500000e+01
3.060486316680908203e+01,-1.031900882720947266e+00,-8.712499618530271661e+00,1.304839849472045898e+00,-2.323913574218750000e+01,7.759094238281250000e+00,2.451324462890625000e+01
3.061600470542907715e+01,-2.901772499084472656e+00,-1.103248119354248047e+01,3.687070608139038086e-01,-2.323913574218750000e+01,7.759094238281250000e+00,2.451324462890625000e+01
3.063433599472045898e+01,-3.816357374191283736e+00,-1.103248119354248047e+01,3.687070608139038086e-01,5.393981933593750000e+00,2.082824707031250000e+00,7.682800292968750000e+00
3.064541554450988770e+01,-3.816357374191283736e+00,-7.850587368011474609e+00,4.455609321594238281e+00,5.393981933593750000e+00,-2.517700195312500000e-01,-9.109497070312500000e+00
3.065809226036071777e+01,-2.063801765441894531e+00,-7.850587368011474609e+00,4.455609321594238281e+00,-9.140014648437500000e+00,-3.074645996093750000e+00,-1.453399658203125000e+01
3.067590069770812988e+01,4.429273009300231934e-01,-9.342174530029296875e+00,3.473986625671386719e+00,-9.140014648437500000e+00,-3.074645996093750000e+00,-9.109497070312500000e+00
3.068706178665161133e+01,4.429273009300231934e-01,-9.342174530029296875e+00,3.473986625671386719e+00,-6.561279296875000000e-01,-6.027221679687500000e-01,4.829406738281250000e+00
3.069999909400939941e+01,-3.447650372982025146e-01,-7.785943984985352451e+00,4.108449935913086826e+00,-6.561279296875000000e-01,2.632141113281250000e+00,1.566314697265625000e+01
3.071467733383178711e+01,-3.260902643203735796e+00,-7.785943984985352451e+00,4.108449935913086826e+00,-3.242492675781250000e+00,3.608703613281250000e+00,1.566314697265625000e+01
3.072654199600219727e+01,-4.414907932281494141e+00,-8.884881973266601562e+00,3.696647405624389648e+00,-9.460449218750000000e+00,3.608703613281250000e+00,3.005981445312500000e+00
3.074127936363220215e+01,-4.414907932281494141e+00,-9.871293067932127130e+00,2.054224967956543413e+00,-9.460449218750000000e+00,-7.705688476562500000e-01,-4.547119140625000000e+00
3.075463151931762695e+01,-1.587355732917785645e+00,-9.871293067932127130e+00,2.054224967956543413e+00,4.829406738281250000e+00,-1.678466796875000000e+00,-9.567260742187500000e+00
3.076889729499816895e+01,-1.723825186491012573e-01,-9.392453193664550781e+00,2.896984100341796875e+00,4.829406738281250000e+00,-8.773803710937500000e-01,-9.567260742187500000e+00
3.078059339523315430e+01,-4.070142656564712524e-02,-9.392453193664550781e+00,2.896984100341796875e+00,-7.759094238281250000e+00,-8.773803710937500000e-01,1.907348632812500000e-01
3.079606437683105469e+01,-4.070142656564712524e-02,-9.964667320251463067e+00,1.699883222579956055e+00,-7.759094238281250000e+00,9.078979492187500000e-01,1.037597656250000000e+01
3.080795884132385254e+01,-1.628057122230529785e+00,-9.964667320251463067e+00,1.699883222579956055e+00,1.625061035156250000e+00,1.258850097656250000e+00,1.037597656250000000e+01
3.082346248626708984e+01,-2.504334926605224609e+00,-9.619902610778806817e+00,2.281674146652221680e+00,3.082275390625000000e+00,1.609802246093750000e+00,5.416870117187500000e+00
3.083793377876281738e+01,-2.504334926605224609e+00,-9.382876396179199219e+00,2.427720546722412109e+00,3.082275390625000000e+00,1.609802246093750000e+00,-4.287719726562500000e+00
3.084965395927429199e+01,-1.929726481437683105e+00,-9.318232536315917969e+00,2.918531894683837891e+00,-9.254455566406250000e+00,-3.684997558593750000e+00,-5.538940429687500000e+00
3.086523914337158203e+01,-1.118092179298400879e+00,-9.318232536315917969e+00,2.918531894683837891e+00,-9.254455566406250000e+00,-3.684997558593750000e+00,-5.538940429687500000e+00
3.087707114219665527e+01,-1.082179188728332297e+00,-9.074024200439453125e+00,4.192246913909912109e+00,-5.859375000000000000e+00,-1.602172851562500000e-01,-2.593994140625000000e-01
3.089221692085266113e+01,-1.082179188728332297e+00,-8.307879447937013495e+00,4.402936935424804688e+00,-5.859375000000000000e+00,2.746582031250000000e-01,4.791259765625000000e+00
3.090386438369750977e+01,-2.454056739807128906e+00,-8.307879447937013495e+00,4.402936935424804688e+00,-1.087951660156250000e+01,2.746582031250000000e-01,8.644104003906250000e+00
3.091951155662536621e+01,-3.392583847045898438e+00,-9.270348548889160156e+00,3.162740468978881836e+00,-1.087951660156250000e+01,2.746582031250000000e-01,8.644104003906250000e+00
3.093478012084960938e+01,-3.392583847045898438e+00,-9.270348548889160156e+00,2.621650934219360352e+00,4.577636718750000000e+00,-8.087158203125000000e-01,-5.424499511718750000e+00
3.094685006141662598e+01,-2.454056739807128906e+00,-8.865728378295898438e+00,2.621650934219360352e+00,4.577636718750000000e+00,-2.815246582031250000e+00,-5.424499511718750000e+00
3.096160197257995605e+01,-9.959878921508787952e-01,-8.865728378295898438e+00,2.621650934219360352e+00,1.159667968750000000e+00,-2.815246582031250000e+00,-3.311157226562500000e+00
3.097393369674682617e+01,-5.075707435607910156e-01,-9.828197479248046875e+00,1.872265696525573508e+00,-2.906799316406250000e+00,-3.051757812500000000e-01,-2.044677734375000000e+00
3.098878717422485352e+01,-5.075707435607910156e-01,-9.981427192687988281e+00,1.872265696525573508e+00,-2.906799316406250000e+00,2.334594726562500000e+00,3.860473632812500000e+00
3.100283741950988770e+01,-1.599326729774475098e+00,-9.981427192687988281e+00,2.166752576828003374e+00,-2.906799316406250000e+00,2.334594726562500000e+00,3.990173339843750000e+00
3.101611852645874023e+01,-2.202665567398071733e+00,-9.236829757690429688e+00,2.437297344207764116e+00,-8.285522460937500000e+00,7.629394531250000000e-01,3.990173339843750000e+00
3.103049969673156738e+01,-2.202665567398071733e+00,-9.167398452758787286e+00,2.930502891540527788e+00,-8.285522460937500000e+00,6.866455078125000000e-02,-1.014709472656250000e+00
3.104227328300476074e+01,-2.149993181228637695e+00,-9.167398452758787286e+00,2.930502891540527788e+00,-4.676818847656250000e+00,-4.425048828125000000e-01,-1.548767089843750000e+00
3.105806088447570801e+01,-8.882488012313842773e-01,-9.167398452758787286e+00,2.930502891540527788e+00,-1.655578613281250000e+00,6.866455078125000000e-02,-1.548767089843750000e+00
3.106898307800292969e+01,-7.206547260284423828e-01,-9.172186851501463067e+00,2.873042106628417969e+00,-1.655578613281250000e+00,4.196166992187500000e-01,1.205444335937500000e+00
3.108497548103332520e+01,-7.206547260284423828e-01,-9.380481719970703125e+00,2.873042106628417969e+00,-3.448486328125000000e+00,4.196166992187500000e-01,4.730224609375000000e+00
3.109864091873168945e+01,-2.023100376129150391e+00,-9.555258750915527344e+00,2.296039342880249023e+00,-3.486633300781250000e+00,2.059936523437500000e-01,6.210327148437500000e+00
3.111201333999633789e+01,-2.557007312774658203e+00,-9.555258750915527344e+00,2.296039342880249023e+00,-3.486633300781250000e+00,2.059936523437500000e-01,6.210327148437500000e+00
3.112714099884033203e+01,-2.726995706558227539e+00,-8.693346023559570312e+00,3.253720045089721680e+00,-2.922058105468750000e+00,-7.095336914062500000e-01,-2.624511718750000000e+00
3.114047598838806152e+01,-2.557007312774658203e+00,-8.693346023559570312e+00,3.253720045089721680e+00,-2.586364746093750000e+00,-7.095336914062500000e-01,-2.624511718750000000e+00
3.115401530265808105e+01,-1.443703651428222878e+00,-8.817844390869140625e+00,2.880224704742432085e+00,-2.922058105468750000e+00,-7.095336914062500000e-01,-1.281738281250000000e+00
3.116451072692871094e+01,-1.405396342277526855e+00,-8.817844390869140625e+00,2.880224704742432085e+00,-3.448486328125000000e+00,-5.722045898437500000e-01,1.220703125000000000e+00
3.118286156654357910e+01,-1.405396342277526855e+00,-8.628703117370605469e+00,3.699041604995727983e+00,-4.196166992187500000e+00,2.517700195312500000e-01,3.608703613281250000e+00
3.119370603561401367e+01,-2.205059766769409180e+00,-8.628703117370605469e+00,3.699041604995727983e+00,-6.080627441406250000e+00,2.517700195312500000e-01,3.608703613281250000e+00
3.120703053474426270e+01,-2.217030763626098189e+00,-8.793902397155763495e+00,3.315969228744506836e+00,-6.080627441406250000e+00,2.517700195312500000e-01,1.632690429687500000e+00
3.122470998764038086e+01,-2.205059766769409180e+00,-9.222464561462402344e+00,2.808398485183715820e+00,-2.311706542968750000e+00,-2.059936523437500000e-01,-2.311706542968750000e+00
3.123532009124755859e+01,-1.826775908470153587e+00,-9.423577308654783380e+00,2.808398485183715820e+00,-2.311706542968750000e+00,-2.464294433593750000e+00,-2.311706542968750000e+00
3.124989151954650879e+01,-1.074996590614318848e+00,-9.411606788635253906e+00,2.724601507186889648e+00,-2.311706542968750000e+00,-2.464294433593750000e+00,-1.747131347656250000e+00
3.126382899284362793e+01,-1.074996590614318848e+00,-9.423577308654783380e+00,2.724601507186889648e+00,-2.731323242187500000e+00,-1.678466796875000000e-01,-1.159667968750000000e+00
3.127564597129821777e+01,-1.168370366096496582e+00,-9.411606788635253906e+00,2.547430515289306197e+00,-2.731323242187500000e+00,1.312255859375000000e+00,4.341125488281250000e+00
3.128885579109191895e+01,-1.721431016921996848e+00,-9.251194953918457031e+00,2.547430515289306197e+00,-4.417419433593750000e+00,1.312255859375000000e+00,4.341125488281250000e+00
3.130561590194702148e+01,-1.980004787445068359e+00,-9.188945770263671875e+00,2.667140722274780273e+00,-4.417419433593750000e+00,1.472473144531250000e+00,1.106262207031250000e+00
3.131689524650573730e+01,-1.980004787445068359e+00,-9.188945770263671875e+00,2.741360902786254883e+00,-3.715515136718750000e+00,1.472473144531250000e+00,-2.044677734375000000e+00
3.132972812652587891e+01,-1.788468599319458008e+00,-9.188945770263671875e+00,2.667140722274780273e+00,-3.715515136718750000e+00,-2.601623535156250000e+00,-2.044677734375000000e+00
3.134498405456542969e+01,-1.187524080276489258e+00,-9.241618156433103692e+00,2.885013103485107422e+00,-3.776550292968750000e+00,-2.601623535156250000e+00,1.869201660156250000e+00
3.135726785659790039e+01,-1.187524080276489258e+00,-9.133879661560060370e+00,2.782062292098999023e+00,-3.776550292968750000e+00,5.493164062500000000e-01,1.869201660156250000e+00
3.137199711799621582e+01,-2.173935174942016602e+00,-9.133879661560060370e+00,2.894589900970458984e+00,-3.776550292968750000e+00,5.493164062500000000e-01,1.976013183593750000e+00
3.138332009315490723e+01,-2.176329374313354492e+00,-8.927977561950683594e+00,2.894589900970458984e+00,-5.249023437500000000e+00,-7.629394531250000000e-01,1.312255859375000000e+00
3.139853739738464355e+01,-2.176329374313354492e+00,-8.927977561950683594e+00,2.894589900970458984e+00,-5.249023437500000000e+00,-7.629394531250000000e-01,4.425048828125000000e-01
3.141169047355651855e+01,-1.929726481437683105e+00,-8.927977561950683594e+00,3.045424461364746094e+00,-2.876281738281250000e+00,-7.629394531250000000e-01,-1.632690429687500000e+00
3.142565703392028809e+01,-1.848323702812194824e+00,-8.753201484680175781e+00,3.045424461364746094e+00,-2.876281738281250000e+00,-2.845764160156250000e+00,-1.632690429687500000e+00
3.144118189811706543e+01,-1.254561662673950195e+00,-8.753201484680175781e+00,3.181894063949584961e+00,-2.876281738281250000e+00,-2.845764160156250000e+00,1.571655273437500000e+00
3.145337462425231934e+01,-1.254561662673950195e+00,-8.884881973266601562e+00,3.181894063949584961e+00,-3.593444824218750000e+00,-8.468627929687500000e-01,1.838684082031250000e+00
3.146828913688659668e+01,-1.721431016921996848e+00,-8.884881973266601562e+00,3.181894063949584961e+00,-2.555847167968750000e+00,1.205444335937500000e+00,1.571655273437500000e+00
3.148074555397033691e+01,-1.805227994918823242e+00,-9.181763648986816406e+00,2.947262287139892578e+00,-1.426696777343750000e+00,-8.316040039062500000e-01,1.197814941406250000e+00
3.149531030654907227e+01,-1.805227994918823242e+00,-9.006986618041992188e+00,2.947262287139892578e+00,-1.426696777343750000e+00,8.392333984375000000e-02,9.613037109375000000e-01
3.150771212577819824e+01,-1.908178687095641868e+00,-9.181763648986816406e+00,2.947262287139892578e+00,-3.868103027343750000e+00,-4.272460937500000000e-01,-1.449584960937500000e-01
3.152195310592651367e+01,-1.515529632568359375e+00,-9.366116523742675781e+00,2.947262287139892578e+00,-3.868103027343750000e+00,8.392333984375000000e-02,-1.449584960937500000e-01
3.153697681427001953e+01,-1.807622194290160911e+00,-9.373299598693847656e+00,2.772485494613647461e+00,-3.570556640625000000e+00,4.196166992187500000e-01,7.629394531250000000e-03
3.154874706268310547e+01,-1.807622194290160911e+00,-9.373299598693847656e+00,2.731784105300903764e+00,-3.570556640625000000e+00,4.196166992187500000e-01,2.197265625000000000e+00
3.156429791450500488e+01,-1.872265696525573508e+00,-9.277531623840332031e+00,2.480392932891845703e+00,-3.570556640625000000e+00,2.593994140625000000e-01,7.629394531250000000e-03
3.157653570175170898e+01,-2.035071372985840288e+00,-9.224859237670898438e+00,2.308010339736938477e+00,-3.349304199218750000e+00,-1.014709472656250000e+00,9.536743164062500000e-01
3.159127759933471680e+01,-2.035071372985840288e+00,-9.198522567749023438e+00,2.308010339736938477e+00,-1.937866210937500000e+00,2.593994140625000000e-01,-4.348754882812500000e-01
3.160720539093017578e+01,-1.886630892753600852e+00,-9.198522567749023438e+00,2.559401512145996094e+00,-3.349304199218750000e+00,-1.014709472656250000e+00,9.536743164062500000e-01
3.161855101585388184e+01,-1.616086125373840332e+00,-9.624691009521484375e+00,2.609679698944091797e+00,-4.043579101562500000e+00,-4.577636718750000000e-01,6.332397460937500000e-01
3.163298797607421875e+01,-1.616086125373840332e+00,-9.624691009521484375e+00,2.609679698944091797e+00,-4.043579101562500000e+00,-4.577636718750000000e-01,1.388549804687500000e+00
3.164594268798828125e+01,-1.731007814407348633e+00,-9.208099365234376776e+00,2.987963676452636719e+00,-2.655029296875000000e+00,8.697509765625000000e-01,6.332397460937500000e-01
3.166002106666564941e+01,-1.850717902183532715e+00,-8.719682693481445312e+00,3.098096847534180132e+00,-2.655029296875000000e+00,8.697509765625000000e-01,1.098632812500000000e+00
3.167226886749267578e+01,-1.855506300926208496e+00,-8.719682693481445312e+00,3.232172250747680664e+00,-3.738403320312500000e+00,-1.762390136718750000e+00,3.738403320312500000e-01
3.168797349929809570e+01,-1.855506300926208496e+00,-9.390058517456056464e+00,3.232172250747680664e+00,-4.180908203125000000e+00,-1.762390136718750000e+00,1.220703125000000000e-01
3.169851040840148926e+01,-1.522712230682373047e+00,-9.390058517456056464e+00,3.232172250747680664e+00,-3.738403320312500000e+00,6.332397460937500000e-01,1.220703125000000000e-01
3.171416926383972168e+01,-1.522712230682373047e+00,-9.196128845214843750e+00,3.114856243133544922e+00,-4.180908203125000000e+00,6.332397460937500000e-01,5.264282226562500000e-01
3.173153996467590332e+01,-1.635239720344543679e+00,-9.057265281677246094e+00,3.114856243133544922e+00,-4.280090332031250000e+00,7.858276367187500000e-01,5.264282226562500000e-01
3.174213933944702148e+01,-1.750161409378051758e+00,-8.937554359436035156e+00,2.973598480224609375e+00,-4.280090332031250000e+00,-7.324218750000000000e-01,1.754760742187500000e+00
3.175627946853637695e+01,-1.750161409378051758e+00,-8.937554359436035156e+00,2.693476915359497070e+00,-3.364562988281250000e+00,3.890991210937500000e-01,4.272460937500000000e-01
3.177076506614685059e+01,-1.786074399948119895e+00,-8.939949035644531250e+00,2.693476915359497070e+00,-3.364562988281250000e+00,-2.899169921875000000e-01,-2.975463867187500000e-01
3.178380227088928223e+01,-1.685518026351928711e+00,-9.112331390380859375e+00,2.758120298385620117e+00,-3.822326660156250000e+00,-2.899169921875000000e-01,-2.975463867187500000e-01
3.179577112197875977e+01,-1.671152710914611816e+00,-9.457096099853515625e+00,2.758120298385620117e+00,-3.822326660156250000e+00,-2.899169921875000000e-01,6.561279296875000000e-01
3.181240415573120117e+01,-1.671152710914611816e+00,-9.457096099853515625e+00,2.753331899642944336e+00,-2.410888671875000000e+00,-7.019042968750000000e-01,1.014709472656250000e+00
3.182290673255920410e+01,-1.778891801834106445e+00,-9.344569206237792969e+00,2.753331899642944336e+00,-2.410888671875000000e+00,4.196166992187500000e-01,6.561279296875000000e-01
3.183686971664428711e+01,-1.860294699668884499e+00,-9.344569206237792969e+00,2.753331899642944336e+00,-3.417968750000000000e+00,-1.228332519531250000e+00,6.103515625000000000e-01
3.185162210464477539e+01,-1.860294699668884499e+00,-9.402029991149902344e+00,2.523488521575928178e+00,-3.471374511718750000e+00,-1.007080078125000000e+00,2.288818359375000000e-01
3.186386609077453613e+01,-1.738190412521362305e+00,-9.402029991149902344e+00,2.523488521575928178e+00,-3.471374511718750000e+00,-1.007080078125000000e+00,2.288818359375000000e-01
3.187924790382385254e+01,-1.486799240112304910e+00,-9.121908187866212714e+00,2.782062292098999023e+00,-3.471374511718750000e+00,-1.144409179687500000e-01,2.288818359375000000e-01
3.189452600479125977e+01,-1.486799240112304910e+00,-9.121908187866212714e+00,3.045424461364746094e+00,-3.593444824218750000e+00,3.051757812500000000e-01,5.035400390625000000e-01
3.190599608421325684e+01,-1.503558635711669922e+00,-9.210494041442872870e+00,3.045424461364746094e+00,-3.845214843750000000e+00,-3.814697265625000000e-02,1.548767089843750000e+00
3.191886329650878906e+01,-1.616086125373840332e+00,-9.239224433898925781e+00,2.765302896499634233e+00,-3.845214843750000000e+00,-3.814697265625000000e-02,1.548767089843750000e+00
3.193550395965576172e+01,-1.915361285209655984e+00,-9.239224433898925781e+00,2.703053712844848633e+00,-3.273010253906250000e+00,-3.814697265625000000e-02,1.190185546875000000e+00
3.194863390922546387e+01,-1.915361285209655984e+00,-9.416395187377929688e+00,2.765302896499634233e+00,-3.273010253906250000e+00,-2.899169921875000000e-01,2.746582031250000000e-01
3.196074557304382324e+01,-1.833958506584167703e+00,-9.334992408752439630e+00,2.789244890213012695e+00,-3.341674804687500000e+00,-6.637573242187500000e-01,2.593994140625000000e-01
3.197551345825195312e+01,-1.814804911613464355e+00,-9.334992408752439630e+00,2.789244890213012695e+00,-3.982543945312500000e+00,-6.637573242187500000e-01,2.593994140625000000e-01
3.198809266090393066e+01,-1.711854219436645508e+00,-9.078812599182127130e+00,2.789244890213012695e+00,-3.982543945312500000e+00,2.059936523437500000e-01,8.010864257812500000e-01
3.200234460830688477e+01,-1.711854219436645508e+00,-9.078812599182127130e+00,2.975992679595947710e+00,-4.386901855468750000e+00,2.059936523437500000e-01,8.621215820312500000e-01
3.201778912544250488e+01,-1.738190412521362305e+00,-9.114726066589355469e+00,2.975992679595947710e+00,-4.386901855468750000e+00,1.907348632812500000e-01,8.850097656250000000e-01
3.202870130538940430e+01,-1.910572886466979980e+00,-9.203310966491699219e+00,2.817975282669067383e+00,-4.135131835937500000e+00,-3.128051757812500000e-01,8.850097656250000000e-01
3.204408645629882812e+01,-1.910572886466979980e+00,-9.220070838928224433e+00,2.817975282669067383e+00,-3.242492675781250000e+00,-3.585815429687500000e-01,1.296997070312500000e-01
3.205622839927673340e+01,-1.697489023208618164e+00,-9.220070838928224433e+00,2.817975282669067383e+00,-3.242492675781250000e+00,-5.035400390625000000e-01,7.629394531250000000e-03
3.207142543792724609e+01,-1.568202137947082297e+00,-9.222464561462402344e+00,2.779668092727661133e+00,-3.684997558593750000e+00,-5.035400390625000000e-01,7.629394531250000000e-03
3.208365988731384277e+01,-1.510741233825683594e+00,-9.222464561462402344e+00,2.772485494613647461e+00,-3.684997558593750000e+00,-5.035400390625000000e-01,5.645751953125000000e-01
3.209799790382385254e+01,-1.510741233825683594e+00,-9.129091262817382812e+00,2.772485494613647461e+00,-3.013610839843750000e+00,-3.204345703125000000e-01,1.304626464843750000e+00
3.211203169822692871e+01,-1.642422318458557129e+00,-9.016563415527343750e+00,3.011905670166016069e+00,-3.013610839843750000e+00,-3.204345703125000000e-01,1.304626464843750000e+00
3.212491130828857422e+01,-1.728613615036010742e+00,-9.016563415527343750e+00,3.011905670166016069e+00,-4.478454589843750000e+00,1.449584960937500000e-01,1.129150390625000000e+00
3.214043974876403809e+01,-1.778891801834106445e+00,-9.471461296081542969e+00,2.906560897827148438e+00,-4.478454589843750000e+00,1.449584960937500000e-01,1.075744628906250000e+00
3.215236091613769531e+01,-1.778891801834106445e+00,-9.471461296081542969e+00,2.806004285812377930e+00,-3.524780273437500000e+00,6.790161132812500000e-01,4.577636718750000000e-01
3.216777658462524414e+01,-1.699883222579956055e+00,-9.119514465332033026e+00,2.806004285812377930e+00,-3.524780273437500000e+00,-6.713867187500000000e-01,1.029968261718750000e+00
3.217876315116882324e+01,-1.699883222579956055e+00,-9.062053680419921875e+00,2.937685489654541016e+00,-3.791809082031250000e+00,-2.746582031250000000e-01,6.866455078125000000e-01
3.219415926933288574e+01,-1.735796213150024414e+00,-9.062053680419921875e+00,2.937685489654541016e+00,-3.791809082031250000e+00,-2.746582031250000000e-01,1.029968261718750000e+00
3.220581316947937012e+01,-1.924938082695007546e+00,-8.997409820556640625e+00,2.794033288955688477e+00,-3.631591796875000000e+00,-2.746582031250000000e-01,6.866455078125000000e-01
3.222175669670104980e+01,-1.953668594360352007e+00,-8.978256225585937500e+00,2.794033288955688477e+00,-3.509521484375000000e+00,-9.307861328125000000e-01,6.637573242187500000e-01
3.223725628852844238e+01,-1.953668594360352007e+00,-8.892065048217773438e+00,3.093308448791503906e+00,-3.509521484375000000e+00,-9.307861328125000000e-01,5.416870117187500000e-01
3.224846959114074707e+01,-1.774103403091430886e+00,-8.892065048217773438e+00,3.196259260177612305e+00,-4.158020019531250000e+00,-1.495361328125000000e+00,5.111694335937500000e-01
3.226309871673583984e+01,-1.766920804977416992e+00,-9.085995674133300781e+00,3.196259260177612305e+00,-4.158020019531250000e+00,-6.332397460937500000e-01,5.111694335937500000e-01
3.227637386322021484e+01,-1.726219415664672852e+00,-9.112331390380859375e+00,2.942473888397216797e+00,-3.417968750000000000e+00,-3.662109375000000000e-01,5.187988281250000000e-01
3.229056000709533691e+01,-1.766920804977416992e+00,-9.085995674133300781e+00,2.894589900970458984e+00,-3.417968750000000000e+00,-2.365112304687500000e-01,5.187988281250000000e-01
3.230259203910827637e+01,-1.690306425094604492e+00,-9.112331390380859375e+00,2.894589900970458984e+00,-4.554748535156250000e+00,-3.662109375000000000e-01,9.918212890625000000e-01
3.231816768646240234e+01,-1.714248418807983398e+00,-9.311050415039062500e+00,2.894589900970458984e+00,-4.554748535156250000e+00,-4.425048828125000000e-01,4.501342773437500000e-01
3.232898998260498047e+01,-1.690306425094604492e+00,-9.311050415039062500e+00,2.911349296569823775e+00,-2.792358398437500000e+00,-4.425048828125000000e-01,6.256103515625000000e-01
3.234457993507385254e+01,-1.666364312171936035e+00,-8.961496353149414062e+00,2.827552080154418945e+00,-2.754211425781250000e+00,-1.213073730468750000e+00,6.256103515625000000e-01
3.236170601844787598e+01,-1.632845520973205566e+00,-8.935160636901855469e+00,2.827552080154418945e+00,-2.754211425781250000e+00,-8.087158203125000000e-01,1.708984375000000000e+00
3.237230634689331055e+01,-1.632845520973205566e+00,-8.935160636901855469e+00,2.827552080154418945e+00,-2.754211425781250000e+00,-8.087158203125000000e-01,1.708984375000000000e+00
3.238656926155090332e+01,-1.824381709098815918e+00,-9.052476882934570312e+00,2.777273893356323242e+00,-3.097534179687500000e+00,-8.087158203125000000e-01,1.708984375000000000e+00
3.240058803558349609e+01,-1.824381709098815918e+00,-9.205705642700195312e+00,2.841917276382446289e+00,-3.097534179687500000e+00,4.501342773437500000e-01,6.637573242187500000e-01
3.241386866569519043e+01,-1.824381709098815918e+00,-9.234436035156250000e+00,2.875436305999756303e+00,-3.990173339843750000e+00,6.866455078125000000e-01,6.637573242187500000e-01
3.242489910125732422e+01,-1.807622194290160911e+00,-9.234436035156250000e+00,2.875436305999756303e+00,-3.990173339843750000e+00,6.866455078125000000e-01,5.111694335937500000e-01
3.244281506538391113e+01,-1.750161409378051758e+00,-9.234436035156250000e+00,2.875436305999756303e+00,-3.723144531250000000e+00,6.866455078125000000e-01,3.585815429687500000e-01
3.245362901687622070e+01,-1.697489023208618164e+00,-8.925583839416503906e+00,2.932897090911864790e+00,-3.623962402343750000e+00,1.449584960937500000e-01,5.111694335937500000e-01
3.246683454513549805e+01,-1.747767210006714089e+00,-8.925583839416503906e+00,3.040636062622070312e+00,-3.623962402343750000e+00,-1.373291015625000000e-01,4.959106445312500000e-01
3.248163890838623047e+01,-1.699883222579956055e+00,-9.078812599182127130e+00,3.040636062622070312e+00,-4.356384277343750000e+00,-1.373291015625000000e-01,4.959106445312500000e-01
3.249456501007080078e+01,-1.726219415664672852e+00,-9.124302864074707031e+00,2.877830505371093750e+00,-4.356384277343750000e+00,-3.356933593750000000e-01,4.959106445312500000e-01
3.250868463516235352e+01,-1.699883222579956055e+00,-9.244012832641601562e+00,2.877830505371093750e+00,-3.700256347656250000e+00,-3.356933593750000000e-01,6.027221679687500000e-01
3.252363562583923340e+01,-1.695094823837280495e+00,-9.141061782836914062e+00,2.887407302856445312e+00,-3.700256347656250000e+00,-3.356933593750000000e-01,6.484985351562500000e-01
3.253641271591186523e+01,-1.594538331031799094e+00,-9.141061782836914062e+00,2.887407302856445312e+00,-3.700256347656250000e+00,-1.678466796875000000e-01,6.027221679687500000e-01
3.254810690879821777e+01,-1.695094823837280495e+00,-9.133879661560060370e+00,2.755726099014282227e+00,-3.692626953125000000e+00,-1.373291015625000000e-01,5.416870117187500000e-01
3.256554150581359863e+01,-1.659181714057922363e+00,-9.121908187866212714e+00,2.755726099014282227e+00,-3.433227539062500000e+00,-9.155273437500000000e-02,5.416870117187500000e-01
