# elapsed time, f2_acc_x, f2_acc_y, f2_acc_z, f2_gyro_x, f2_gyro_y, f2_gyro_z
6.731637954711914062e+01,3.591302409768105247e-02,-7.505822181701660156e+00,6.488286495208740234e+00,2.746582031250000000e-01,2.517700195312500000e-01,-2.746582031250000000e-01
6.733174991607666016e+01,3.591302409768105247e-02,-7.467514991760253906e+00,6.493074893951416016e+00,2.746582031250000000e-01,2.746582031250000000e-01,-2.136230468750000000e-01
6.734370803833007812e+01,2.154781483113765717e-02,-7.467514991760253906e+00,6.495469093322753906e+00,2.441406250000000000e-01,2.517700195312500000e-01,-2.136230468750000000e-01
6.735948109626770020e+01,-1.197100803256034851e-02,-7.491456985473632812e+00,6.495469093322753906e+00,3.738403320312500000e-01,2.288818359375000000e-02,-1.983642578125000000e-01
6.737159276008605957e+01,-1.915361359715461731e-02,-7.515398979187012607e+00,6.476315498352050781e+00,3.738403320312500000e-01,-2.441406250000000000e-01,-1.144409179687500000e-01
6.738567852973937988e+01,-1.915361359715461731e-02,-7.515398979187012607e+00,6.418854713439941406e+00,5.493164062500000000e-01,-9.155273437500000000e-02,-1.144409179687500000e-01
6.739748716354370117e+01,3.591302409768105247e-02,-7.515398979187012607e+00,6.476315498352050781e+00,5.493164062500000000e-01,-1.220703125000000000e-01,-2.517700195312500000e-01
6.741288328170776367e+01,3.591302409768105247e-02,-7.532158374786377841e+00,6.493074893951416016e+00,5.340576171875000000e-01,-9.155273437500000000e-02,-3.128051757812500000e-01
6.742779803276062012e+01,-2.394201699644327164e-03,-7.498639583587646484e+00,6.493074893951416016e+00,3.051757812500000000e-01,-3.051757812500000000e-02,-2.517700195312500000e-01
6.743989253044128418e+01,-2.394201699644327164e-03,-7.498639583587646484e+00,6.505045890808105469e+00,5.340576171875000000e-01,3.051757812500000000e-02,-3.128051757812500000e-01
6.745513200759887695e+01,2.394201606512069702e-02,-7.481880187988281250e+00,6.478709697723388672e+00,1.831054687500000000e-01,-3.051757812500000000e-02,-3.662109375000000000e-01
6.746659612655639648e+01,2.394201606512069702e-02,-7.443572998046875000e+00,6.481103897094727451e+00,6.027221679687500000e-01,7.629394531250000000e-02,-3.662109375000000000e-01
6.748191142082214355e+01,2.394201606512069702e-02,-7.443572998046875000e+00,6.426037311553955078e+00,3.356933593750000000e-01,1.296997070312500000e-01,-3.662109375000000000e-01
6.749344110488891602e+01,3.112462162971496929e-02,-7.517793178558349609e+00,6.481103897094727451e+00,3.356933593750000000e-01,1.296997070312500000e-01,-3.662109375000000000e-01
6.750857734680175781e+01,3.112462162971496929e-02,-7.517793178558349609e+00,6.519411087036132812e+00,3.051757812500000000e-01,1.525878906250000000e-01,-1.296997070312500000e-01
6.752026176452636719e+01,3.112462162971496929e-02,-7.505822181701660156e+00,6.519411087036132812e+00,3.051757812500000000e-01,-1.831054687500000000e-01,-3.967285156250000000e-01
6.753564190864562988e+01,-2.394201699644327164e-03,-7.505822181701660156e+00,6.517016887664794922e+00,3.128051757812500000e-01,-1.831054687500000000e-01,-3.585815429687500000e-01
6.755145502090454102e+01,5.027823522686958313e-02,-7.517793178558349609e+00,6.517016887664794922e+00,3.356933593750000000e-01,-1.831054687500000000e-01,-3.585815429687500000e-01
6.756350326538085938e+01,1.436521019786596298e-02,-7.517793178558349609e+00,6.540958881378173828e+00,3.356933593750000000e-01,-3.356933593750000000e-01,-3.585815429687500000e-01
6.757793378829956055e+01,2.394201606512069702e-02,-7.412448406219482422e+00,6.540958881378173828e+00,3.280639648437500000e-01,-1.449584960937500000e-01,-2.822875976562500000e-01
6.758955693244934082e+01,1.436521019786596298e-02,-7.412448406219482422e+00,6.418854713439941406e+00,3.280639648437500000e-01,0.000000000000000000e+00,-1.983642578125000000e-01
6.760548186302185059e+01,4.788403399288654327e-03,-7.517793178558349609e+00,6.392518520355224609e+00,3.128051757812500000e-01,0.000000000000000000e+00,-1.144409179687500000e-01
6.761645531654357910e+01,2.394201699644327164e-03,-7.558494567871093750e+00,6.418854713439941406e+00,3.128051757812500000e-01,-1.525878906250000000e-02,-1.983642578125000000e-01
6.763149952888488770e+01,2.394201699644327164e-03,-7.520187377929686612e+00,6.555324077606201172e+00,3.128051757812500000e-01,-2.288818359375000000e-01,-3.051757812500000000e-01
6.764770531654357910e+01,2.394201699644327164e-03,-7.520187377929686612e+00,6.555324077606201172e+00,2.975463867187500000e-01,-3.204345703125000000e-01,-6.103515625000000000e-01
6.765921306610107422e+01,1.436521019786596298e-02,-7.515398979187012607e+00,6.500257492065429688e+00,5.111694335937500000e-01,-3.280639648437500000e-01,-6.103515625000000000e-01
6.767342925071716309e+01,1.436521019786596298e-02,-7.505822181701660156e+00,6.452373504638672763e+00,3.433227539062500000e-01,-3.204345703125000000e-01,-5.798339843750000000e-01
6.768825364112854004e+01,1.436521019786596298e-02,-7.505822181701660156e+00,6.461950302124022549e+00,3.433227539062500000e-01,-2.975463867187500000e-01,-5.416870117187500000e-01
6.770124197006225586e+01,-9.576806798577308655e-03,-7.505822181701660156e+00,6.452373504638672763e+00,3.433227539062500000e-01,6.103515625000000000e-02,-2.593994140625000000e-01
6.771323466300964355e+01,-9.576806798577308655e-03,-7.479485988616942471e+00,6.461950302124022549e+00,3.433227539062500000e-01,1.831054687500000000e-01,-7.629394531250000000e-03
6.773021245002746582e+01,1.197100803256034851e-02,-7.479485988616942471e+00,6.524199485778808594e+00,3.433227539062500000e-01,1.831054687500000000e-01,-7.629394531250000000e-03
6.774293923377990723e+01,4.548983275890350342e-02,-7.479485988616942471e+00,6.562506675720214844e+00,2.517700195312500000e-01,-1.525878906250000000e-02,-3.204345703125000000e-01
6.775533294677734375e+01,4.548983275890350342e-02,-7.467514991760253906e+00,6.562506675720214844e+00,2.517700195312500000e-01,-1.525878906250000000e-02,-3.280639648437500000e-01
6.777241754531860352e+01,4.548983275890350342e-02,-7.395689010620117188e+00,6.557718276977539062e+00,2.746582031250000000e-01,3.051757812500000000e-02,-6.484985351562500000e-01
6.778327107429504395e+01,-4.788403399288654327e-03,-7.395689010620117188e+00,6.459556102752685547e+00,2.899169921875000000e-01,1.907348632812500000e-01,-7.858276367187500000e-01
6.779757547378540039e+01,-4.548983275890350342e-02,-7.378929615020752841e+00,6.438008308410644531e+00,2.899169921875000000e-01,2.822875976562500000e-01,-1.174926757812500000e+00
6.781113743782043457e+01,-4.548983275890350342e-02,-7.508216381072997159e+00,6.382941722869872159e+00,3.051757812500000000e-02,5.493164062500000000e-01,-2.105712890625000000e+00
6.782395911216735840e+01,-3.112462162971496929e-02,-7.378929615020752841e+00,6.438008308410644531e+00,-1.525878906250000000e-02,7.247924804687500000e-01,-2.197265625000000000e+00
6.783858561515808105e+01,-3.112462162971496929e-02,-7.366958618164062500e+00,6.543353080749512607e+00,-1.296997070312500000e-01,9.307861328125000000e-01,-2.479553222656250000e+00
6.785342383384704590e+01,4.070142656564712524e-02,-7.366958618164062500e+00,6.543353080749512607e+00,-1.296997070312500000e-01,1.693725585937500000e+00,-2.685546875000000000e+00
6.786544990539550781e+01,9.576806426048280196e-02,-7.548917770385742188e+00,6.512228488922119141e+00,-1.831054687500000000e-01,2.059936523437500000e+00,-3.067016601562500000e+00
6.787783384323120117e+01,9.576806426048280196e-02,-7.565677165985107422e+00,6.493074893951416016e+00,-1.831054687500000000e-01,2.059936523437500000e+00,-3.150939941406250000e+00
6.789532685279846191e+01,7.422025501728057861e-02,-7.565677165985107422e+00,6.493074893951416016e+00,-3.585815429687500000e-01,2.105712890625000000e+00,-3.150939941406250000e+00
6.790634059906005859e+01,7.422025501728057861e-02,-7.565677165985107422e+00,6.493074893951416016e+00,-3.585815429687500000e-01,2.662658691406250000e+00,-4.013061523437500000e+00
6.791945195198059082e+01,4.548983275890350342e-02,-7.560888767242432529e+00,6.435614109039307529e+00,-3.509521484375000000e-01,2.838134765625000000e+00,-4.409790039062500000e+00
6.793750810623168945e+01,1.197100803256034851e-02,-7.455543994903564453e+00,6.411672115325927734e+00,1.068115234375000000e-01,3.463745117187500000e+00,-4.867553710937500000e+00
6.794853997230529785e+01,1.197100803256034851e-02,-7.455543994903564453e+00,6.411672115325927734e+00,3.051757812500000000e-02,3.974914550781250000e+00,-5.851745605468750000e+00
6.796201848983764648e+01,1.244984865188598494e-01,-7.455543994903564453e+00,6.411672115325927734e+00,1.754760742187500000e-01,4.051208496093750000e+00,-5.867004394531250000e+00
6.797417998313903809e+01,2.035071402788162509e-01,-7.501033782958983487e+00,6.682216644287108487e+00,3.433227539062500000e-01,4.051208496093750000e+00,-5.851745605468750000e+00
6.798831605911254883e+01,2.035071402788162509e-01,-7.484274387359619141e+00,6.682216644287108487e+00,7.095336914062500000e-01,2.586364746093750000e+00,-5.050659179687500000e+00
6.800039458274841309e+01,1.651999205350876132e-01,-7.484274387359619141e+00,6.598419666290282315e+00,1.296997070312500000e+00,1.541137695312500000e+00,-4.058837890625000000e+00
6.801599550247192383e+01,1.244984865188598494e-01,-7.316680431365967685e+00,6.588842868804932529e+00,1.296997070312500000e+00,1.541137695312500000e+00,-4.058837890625000000e+00
6.802814865112304688e+01,1.101332753896713257e-01,-7.316680431365967685e+00,6.588842868804932529e+00,1.007080078125000000e+00,2.830505371093750000e+00,-4.562377929687500000e+00
6.804333567619323730e+01,1.101332753896713257e-01,-7.395689010620117188e+00,6.442796707153320312e+00,9.765625000000000000e-01,4.501342773437500000e+00,-6.553649902343750000e+00
6.805754423141479492e+01,1.316810846328735629e-01,-7.395689010620117188e+00,5.425261020660400391e+00,-1.403808593750000000e+00,4.501342773437500000e+00,-6.553649902343750000e+00
6.806950950622558594e+01,1.316810846328735629e-01,-7.460332393646240234e+00,5.425261020660400391e+00,-1.403808593750000000e+00,3.746032714843750000e+00,-4.760742187500000000e+00
6.808507871627807617e+01,1.149216815829277039e-01,-7.077260017395020419e+00,6.236895561218262607e+00,6.378173828125000000e+00,2.563476562500000000e+00,-4.180908203125000000e+00
6.809696507453918457e+01,-4.548983275890350342e-02,-7.460332393646240234e+00,6.236895561218262607e+00,8.171081542968750000e+00,2.563476562500000000e+00,-4.180908203125000000e+00
6.811144065856933594e+01,-4.548983275890350342e-02,-7.857769966125487393e+00,6.208164691925048828e+00,1.015472412109375000e+01,2.563476562500000000e+00,-3.868103027343750000e+00
6.812369513511657715e+01,1.197100803256034712e-01,-7.857769966125487393e+00,6.208164691925048828e+00,1.151275634765625000e+01,-2.426147460937500000e+00,8.392333984375000000e-01
6.813890457153320312e+01,1.197100803256034712e-01,-7.690175533294677734e+00,6.780379295349121094e+00,1.151275634765625000e+01,-2.426147460937500000e+00,8.392333984375000000e-01
6.815079903602600098e+01,6.224924325942992470e-02,-7.412448406219482422e+00,6.780379295349121094e+00,8.544921875000000000e+00,4.348754882812500000e-01,-3.715515136718750000e+00
6.816620206832885742e+01,6.224924325942992470e-02,-6.931213855743407315e+00,6.528987884521483487e+00,8.468627929687500000e+00,1.480102539062500000e+00,-3.715515136718750000e+00
6.817810726165771484e+01,1.221042871475219449e-01,-6.931213855743407315e+00,6.416460514068604404e+00,8.468627929687500000e+00,1.480102539062500000e+00,-3.883361816406250000e+00
6.819354701042175293e+01,1.221042871475219449e-01,-7.237671852111816406e+00,6.471527099609375000e+00,8.468627929687500000e+00,1.480102539062500000e+00,-3.883361816406250000e+00
6.820987033843994141e+01,1.221042871475219449e-01,-7.299921035766602451e+00,6.471527099609375000e+00,8.041381835937500000e+00,1.914978027343750000e+00,-5.432128906250000000e+00
6.822114801406860352e+01,-2.250549495220184604e-01,-7.326257228851317471e+00,6.883329868316650391e+00,7.629394531250000000e+00,1.914978027343750000e+00,-5.432128906250000000e+00
6.823592662811279297e+01,-9.816227108240127563e-02,-7.326257228851317471e+00,7.096413612365722656e+00,5.928039550781250000e+00,1.884460449218750000e+00,-5.432128906250000000e+00
6.824683737754821777e+01,-9.816227108240127563e-02,-7.065289020538330078e+00,6.883329868316650391e+00,5.928039550781250000e+00,1.670837402343750000e+00,-5.226135253906250000e+00
6.826162457466125488e+01,-9.816227108240127563e-02,-6.969521045684815341e+00,6.622361660003662109e+00,5.302429199218750000e+00,1.884460449218750000e+00,-5.554199218750000000e+00
6.827972245216369629e+01,-7.661445438861846924e-02,-6.969521045684815341e+00,6.387730121612548828e+00,2.220153808593750000e+00,7.652282714843750000e+00,-8.918762207031250000e+00
6.829045152664184570e+01,-1.915361285209656039e-01,-6.969521045684815341e+00,6.622361660003662109e+00,2.220153808593750000e+00,7.652282714843750000e+00,-8.918762207031250000e+00
6.830359601974487305e+01,-1.077390760183334351e-01,-7.024587631225585938e+00,6.418854713439941406e+00,3.715515136718750000e+00,3.501892089843750000e+00,-7.171630859375000000e+00
6.831835079193115234e+01,-1.077390760183334351e-01,-7.522581577301025391e+00,6.418854713439941406e+00,4.791259765625000000e+00,1.228332519531250000e+00,-5.432128906250000000e+00
6.833077478408813477e+01,-1.077390760183334351e-01,-7.522581577301025391e+00,6.418854713439941406e+00,4.791259765625000000e+00,-2.662658691406250000e+00,-3.585815429687500000e-01
6.834301495552062988e+01,2.968810200691223145e-01,-7.426813602447509766e+00,6.574477672576903409e+00,3.929138183593750000e+00,-2.662658691406250000e+00,-3.585815429687500000e-01
6.836037802696228027e+01,2.968810200691223145e-01,-7.208940982818603516e+00,6.710947036743164062e+00,3.929138183593750000e+00,-2.662658691406250000e+00,-3.410339355468750000e+00
6.837160110473632812e+01,2.968810200691223145e-01,-6.766014099121093750e+00,6.739677906036377841e+00,-3.860473632812500000e+00,1.136779785156250000e+00,-9.925842285156250000e+00
6.838482952117919922e+01,4.118026793003082275e-01,-6.766014099121093750e+00,6.739677906036377841e+00,-5.325317382812500000e+00,-5.310058593750000000e+00,-1.183319091796875000e+01
6.840249991416931152e+01,4.070142805576325018e-01,-7.412448406219482422e+00,6.799532890319824219e+00,-5.325317382812500000e+00,-1.480102539062500000e+01,-1.183319091796875000e+01
6.841351938247680664e+01,4.070142805576325018e-01,-7.455543994903564453e+00,6.799532890319824219e+00,-3.936767578125000000e+00,-2.377319335937500000e+01,-5.668640136718750000e+00
6.842745065689086914e+01,3.806780576705933172e-01,-7.412448406219482422e+00,6.952761650085449219e+00,-3.936767578125000000e+00,-2.377319335937500000e+01,-5.340576171875000000e+00
6.844115972518920898e+01,3.064578175544738770e-01,-7.038952827453612393e+00,7.117961406707763672e+00,-5.928039550781250000e+00,-1.954650878906250000e+01,-5.340576171875000000e+00
6.845423936843872070e+01,2.849099934101104736e-01,-6.969521045684815341e+00,6.952761650085449219e+00,-8.377075195312500000e+00,-9.544372558593750000e+00,-2.891540527343750000e+00
6.846539425849914551e+01,2.849099934101104736e-01,-7.038952827453612393e+00,6.880935668945312500e+00,-8.377075195312500000e+00,-1.541137695312500000e+00,-2.891540527343750000e+00
6.848328399658203125e+01,2.849099934101104736e-01,-7.206546783447266513e+00,6.653486251831054688e+00,-8.331298828125000000e+00,2.655029296875000000e+00,-1.425933837890625000e+01
6.849402117729187012e+01,3.016694188117980957e-01,-7.283161640167236328e+00,6.641515254974365234e+00,-8.331298828125000000e+00,2.655029296875000000e+00,-1.904296875000000000e+01
6.850827741622924805e+01,3.016694188117980957e-01,-7.448361396789550781e+00,6.392518520355224609e+00,-9.002685546875000000e+00,2.861022949218750000e+00,-1.904296875000000000e+01
6.852345967292785645e+01,3.016694188117980957e-01,-7.580042362213134766e+00,6.392518520355224609e+00,-9.002685546875000000e+00,2.929687500000000000e+00,-1.770019531250000000e+01
6.853438544273376465e+01,4.548983275890349787e-01,-7.448361396789550781e+00,6.507440090179442471e+00,-8.956909179687500000e+00,4.669189453125000000e+00,-1.770019531250000000e+01
6.854972553253173828e+01,4.548983275890349787e-01,-7.417236804962157315e+00,6.964732646942138672e+00,-7.850646972656250000e+00,4.669189453125000000e+00,-2.023315429687500000e+01
6.856194782257080078e+01,1.288080453872680886e+00,-7.129932403564452237e+00,6.964732646942138672e+00,-6.515502929687500000e+00,4.409790039062500000e+00,-2.023315429687500000e+01
6.857654476165771484e+01,4.405331015586853027e-01,-7.230488777160643643e+00,6.574477672576903409e+00,-4.760742187500000000e+00,4.409790039062500000e+00,-1.499938964843750000e+01
6.858864235877990723e+01,2.274491637945174893e-01,-7.230488777160643643e+00,6.404489517211914062e+00,-3.990173339843750000e+00,4.409790039062500000e+00,-1.181793212890625000e+01
6.860351109504699707e+01,-1.915361359715461731e-02,-7.230488777160643643e+00,6.404489517211914062e+00,-4.760742187500000000e+00,1.846313476562500000e+00,-1.499938964843750000e+01
6.861583447456359863e+01,-1.915361359715461731e-02,-7.077260017395020419e+00,6.323086738586425781e+00,-3.578186035156250000e+00,1.846313476562500000e+00,-1.638793945312500000e+01
6.863116574287414551e+01,2.059013396501541138e-01,-7.077260017395020419e+00,7.007828235626221591e+00,-1.567077636718750000e+01,7.171630859375000000e+00,-2.366638183593750000e+01
6.864650344848632812e+01,1.434126853942870872e+00,-7.256825447082518643e+00,6.476315498352050781e+00,-1.710510253906250000e+01,7.171630859375000000e+00,-2.366638183593750000e+01
6.865851974487304688e+01,1.079784989356994629e+00,-7.295132637023925781e+00,6.636726856231689453e+00,-1.828002929687500000e+01,3.494262695312500000e+00,-1.564025878906250000e+01
6.867319869995117188e+01,1.079784989356994629e+00,-7.553706169128417969e+00,6.536170482635497159e+00,-1.864624023437500000e+01,3.494262695312500000e+00,-1.564025878906250000e+01
6.868527603149414062e+01,1.010353088378906250e+00,-7.721300125122070312e+00,6.536170482635497159e+00,-1.936340332031250000e+01,7.087707519531250000e+00,-2.140045166015625000e+01
6.869977211952209473e+01,1.010353088378906250e+00,-7.721300125122070312e+00,6.404489517211914062e+00,-1.864624023437500000e+01,7.087707519531250000e+00,-2.307891845703125000e+01
6.871185135841369629e+01,1.010353088378906250e+00,-7.728482723236083984e+00,6.325480937957763672e+00,-1.425170898437500000e+01,6.652832031250000000e+00,-2.140045166015625000e+01
6.872751045227050781e+01,7.996633648872375488e-01,-7.419631004333496094e+00,6.325480937957763672e+00,-1.425170898437500000e+01,5.996704101562500000e+00,-1.999664306640625000e+01
6.874237489700317383e+01,7.996633648872375488e-01,-7.721300125122070312e+00,6.313509941101074219e+00,-1.940917968750000000e+01,5.996704101562500000e+00,-1.999664306640625000e+01
6.875422763824462891e+01,9.265560507774351917e-01,-7.419631004333496094e+00,6.282385349273682529e+00,-1.940917968750000000e+01,6.744384765625000000e+00,-2.079772949218750000e+01
6.876959967613220215e+01,1.189918279647827148e+00,-7.381323814392089844e+00,6.275202751159667969e+00,-1.908874511718750000e+01,6.744384765625000000e+00,-2.079772949218750000e+01
6.878154993057250977e+01,1.572990536689758301e+00,-7.381323814392089844e+00,6.239289760589599609e+00,-1.828002929687500000e+01,8.354187011718750000e+00,-1.895141601562500000e+01
6.879621839523315430e+01,2.054224967956543413e+00,-7.740454196929932529e+00,5.963956356048583984e+00,-1.549530029296875000e+01,6.240844726562500000e+00,-1.450347900390625000e+01
6.880844068527221680e+01,2.281674146652221680e+00,-8.200140953063964844e+00,5.858611583709717685e+00,-1.501464843750000000e+01,3.646850585937500000e+00,-5.546569824218750000e+00
6.882357692718505859e+01,2.281674146652221680e+00,-1.940021514892578125e+01,5.963956356048583984e+00,-1.501464843750000000e+01,3.646850585937500000e+00,-5.546569824218750000e+00
6.883430409431457520e+01,3.758896589279174805e-01,-1.961330032348632812e+01,1.961270141601562500e+01,1.703109741210937500e+02,2.499923706054687500e+02,-8.663940429687500000e+01
6.884965872764587402e+01,-1.961330032348632812e+01,-1.940021514892578125e+01,1.961270141601562500e+01,-6.203460693359375000e+01,2.499923706054687500e+02,-8.663940429687500000e+01
6.886272597312927246e+01,-1.723106956481933594e+01,-1.287122821807861328e+01,1.852393913269042969e+01,-2.042388916015625000e+01,-2.944946289062500000e+00,-5.830383300781250000e+01
6.887697243690490723e+01,-1.723106956481933594e+01,-1.188242244720458984e+01,5.856217384338378906e+00,-2.042388916015625000e+01,-2.444458007812500000e+01,-9.063720703125000000e+00
6.889212560653686523e+01,4.991910457611083984e+00,-1.188242244720458984e+01,4.666298866271972656e+00,1.837158203125000000e+01,-2.444458007812500000e+01,-3.283691406250000000e+01
6.890630245208740234e+01,4.991910457611083984e+00,-7.893682956695557529e+00,5.856217384338378906e+00,5.561828613281250000e+01,-9.368896484375000000e+00,1.263427734375000000e+01
6.891925001144409180e+01,8.906430006027221680e-01,-3.840299367904663086e+00,7.285555839538574219e+00,5.561828613281250000e+01,-5.538940429687500000e+00,1.283264160156250000e+01
6.893107557296752930e+01,2.873041927814484198e-01,-2.858676671981811523e+00,7.793126583099365234e+00,2.164459228515625000e+01,6.263732910156250000e+00,1.283264160156250000e+01
6.894796514511108398e+01,2.873041927814484198e-01,-2.858676671981811523e+00,7.793126583099365234e+00,-3.862762451171875000e+01,-7.705688476562500000e-01,-1.329803466796875000e+01
6.895836496353149414e+01,2.913743495941162109e+00,-8.204929351806638849e+00,6.378153324127197266e+00,-3.862762451171875000e+01,1.181793212890625000e+01,-1.329803466796875000e+01
6.897351670265197754e+01,2.913743495941162109e+00,-9.734824180603027344e+00,5.657498359680175781e+00,-2.331542968750000000e+01,9.765625000000000000e+00,1.531219482421875000e+01
6.899057674407958984e+01,-2.202665507793426514e-01,-9.734824180603027344e+00,5.657498359680175781e+00,7.019042968750000000e+00,9.765625000000000000e+00,1.531219482421875000e+01
6.900161957740783691e+01,-2.030282974243164062e+00,-8.418012619018554688e+00,6.835445880889892578e+00,2.081298828125000000e+01,-3.997802734375000000e+00,9.277343750000000000e+00
6.901486515998840332e+01,-2.030282974243164062e+00,-6.392518520355224609e+00,7.472303390502929688e+00,2.081298828125000000e+01,-1.559448242187500000e+01,-1.277923583984375000e+01
6.902934789657592773e+01,2.264914751052856445e+00,-5.224147796630858487e+00,7.026981830596923828e+00,1.927185058593750000e+01,-1.559448242187500000e+01,-1.277923583984375000e+01
6.904149127006530762e+01,3.086125850677490234e+00,-4.129997730255126953e+00,7.666233539581298828e+00,1.631927490234375000e+01,-9.696960449218750000e+00,2.159118652343750000e+00
6.905345869064331055e+01,3.086125850677490234e+00,-4.129997730255126953e+00,9.502586364746093750e+00,-2.807617187500000000e+00,3.761291503906250000e+00,3.494262695312500000e+00
6.907131552696228027e+01,-7.110778689384459339e-01,-4.187458515167236328e+00,9.502586364746093750e+00,-1.702880859375000000e+01,3.761291503906250000e+00,3.494262695312500000e+00
6.908195066452026367e+01,-7.110778689384459339e-01,-8.300697326660156250e+00,6.742072105407714844e+00,-1.702880859375000000e+01,2.449035644531250000e+00,3.082275390625000000e+00
6.909617018699645996e+01,9.744400978088380016e-01,-9.425971984863279474e+00,5.511452198028564453e+00,-4.669189453125000000e+00,-9.460449218750000000e-01,-2.624511718750000000e+00
6.911052393913269043e+01,9.744400978088380016e-01,-9.425971984863279474e+00,5.511452198028564453e+00,2.011108398437500000e+01,-1.441955566406250000e+00,-2.288818359375000000e+00
6.912259864807128906e+01,-1.139639973640442117e+00,-5.712564945220947266e+00,7.457938194274902344e+00,2.011108398437500000e+01,-1.594543457031250000e+00,-2.624511718750000000e+00
6.913803839683532715e+01,-1.139639973640442117e+00,-4.005499362945556641e+00,9.186552047729492188e+00,1.187896728515625000e+01,-1.922607421875000000e+00,-2.288818359375000000e+00
6.915002465248107910e+01,1.391031146049499512e+00,-4.005499362945556641e+00,9.186552047729492188e+00,-5.348205566406250000e+00,-1.922607421875000000e+00,-1.914978027343750000e+00
6.916448998451232910e+01,1.391031146049499512e+00,-5.458779811859130859e+00,7.817068576812744141e+00,-1.338958740234375000e+01,2.670288085937500000e+00,3.234863281250000000e+00
6.917657732963562012e+01,1.675941199064254761e-01,-7.132326602935791016e+00,7.647079944610596591e+00,-1.338958740234375000e+01,2.670288085937500000e+00,3.234863281250000000e+00
6.919222497940063477e+01,-1.403002142906188965e+00,-8.705317497253417969e+00,6.754043102264403409e+00,-3.334045410156250000e+00,1.792907714843750000e+00,1.541137695312500000e+00
6.920339179039001465e+01,-1.403002142906188965e+00,-8.705317497253417969e+00,6.754043102264403409e+00,4.272460937500000000e+00,-2.693176269531250000e+00,-5.187988281250000000e+00
6.921910095214843750e+01,1.335964560508728027e+00,-7.196969985961914062e+00,7.079654216766357422e+00,1.032257080078125000e+01,-2.693176269531250000e+00,-5.187988281250000000e+00
6.923375868797302246e+01,1.335964560508728027e+00,-5.353435039520263672e+00,8.185775756835937500e+00,1.032257080078125000e+01,-5.340576171875000000e-01,-2.227783203125000000e+00
6.924578905105590820e+01,5.051765441894531250e-01,-5.121197223663330078e+00,8.204929351806638849e+00,1.808166503906250000e+00,4.272460937500000000e-01,4.051208496093750000e+00
6.926140618324279785e+01,2.729389965534210205e-01,-5.121197223663330078e+00,8.204929351806638849e+00,-1.122283935546875000e+01,2.067565917968750000e+00,4.051208496093750000e+00
6.927334332466125488e+01,2.729389965534210205e-01,-7.419631004333496094e+00,7.304709434509277344e+00,-1.122283935546875000e+01,2.067565917968750000e+00,2.952575683593750000e+00
6.928770947456359863e+01,-2.801215946674346924e-01,-8.513781547546388495e+00,6.533776283264160156e+00,-3.746032714843750000e+00,1.579284667968750000e+00,1.029968261718750000e+00
6.929985904693603516e+01,-3.375824391841888428e-01,-8.513781547546388495e+00,6.533776283264160156e+00,7.293701171875000000e+00,-8.010864257812500000e-01,1.029968261718750000e+00
6.931450605392456055e+01,-3.375824391841888428e-01,-6.481103897094727451e+00,7.706934928894042969e+00,7.469177246093750000e+00,-8.621215820312500000e-01,-6.088256835937500000e+00
6.932623815536499023e+01,7.661445140838623047e-01,-5.195417404174804688e+00,8.149862289428710938e+00,7.469177246093750000e+00,-8.621215820312500000e-01,-6.088256835937500000e+00
6.934153676033020020e+01,1.060631394386291504e+00,-4.991910457611083984e+00,8.355763435363769531e+00,1.373291015625000000e-01,1.907348632812500000e-01,3.433227539062500000e-01
6.935750341415405273e+01,1.060631394386291504e+00,-4.991910457611083984e+00,8.149862289428710938e+00,-7.339477539062500000e+00,1.914978027343750000e+00,5.340576171875000000e+00
6.936840438842773438e+01,-7.493851184844970703e-01,-6.895300865173339844e+00,7.548917770385742188e+00,-7.339477539062500000e+00,1.914978027343750000e+00,5.340576171875000000e+00
6.938455033302307129e+01,-7.493851184844970703e-01,-7.958326339721679688e+00,6.734889507293701172e+00,-4.081726074218750000e+00,5.340576171875000000e-01,1.602172851562500000e-01
6.939562988281250000e+01,-2.561795711517333984e-01,-7.958326339721679688e+00,6.734889507293701172e+00,6.286621093750000000e+00,-1.197814941406250000e+00,-4.188537597656250000e+00
6.941152763366699219e+01,3.040636181831359863e-01,-6.414066314697266513e+00,7.582436561584472656e+00,6.286621093750000000e+00,-1.197814941406250000e+00,-4.188537597656250000e+00
6.942214870452880859e+01,5.817909836769104004e-01,-5.166687011718750000e+00,8.497021675109861505e+00,6.286621093750000000e+00,-3.890991210937500000e-01,-2.571105957031250000e+00
6.943862843513488770e+01,6.679822802543640137e-01,-5.166687011718750000e+00,8.497021675109861505e+00,-3.913879394531250000e+00,1.045227050781250000e+00,-4.806518554687500000e-01
6.945063495635986328e+01,6.679822802543640137e-01,-5.906495571136474609e+00,7.778761386871337891e+00,-6.736755371093750000e+00,1.319885253906250000e+00,4.165649414062500000e+00
6.946518564224243164e+01,3.040636181831359863e-01,-7.400477409362792969e+00,6.845022678375244141e+00,-6.736755371093750000e+00,1.319885253906250000e+00,4.165649414062500000e+00
6.947947931289672852e+01,-3.471592366695404053e-01,-7.400477409362792969e+00,6.845022678375244141e+00,1.098632812500000000e+00,-1.831054687500000000e-01,5.035400390625000000e-01
6.949272274971008301e+01,-3.471592366695404053e-01,-7.307103633880615234e+00,6.976703643798827237e+00,6.294250488281250000e+00,-1.686096191406250000e+00,-3.326416015625000000e+00
6.950724363327026367e+01,5.099649429321289062e-01,-6.605602264404297763e+00,7.608772754669188565e+00,6.294250488281250000e+00,-1.686096191406250000e+00,-3.326416015625000000e+00
6.951925206184387207e+01,5.099649429321289062e-01,-5.561730384826660156e+00,8.049305915832519531e+00,3.929138183593750000e+00,-3.280639648437500000e-01,-2.197265625000000000e+00
6.953621792793273926e+01,3.112462162971497137e-01,-5.561730384826660156e+00,8.049305915832519531e+00,-3.356933593750000000e+00,6.790161132812500000e-01,2.815246582031250000e+00
6.954725003242492676e+01,1.628057062625885010e-01,-6.145915508270263672e+00,7.690175533294677734e+00,-3.356933593750000000e+00,6.790161132812500000e-01,2.815246582031250000e+00
6.956142473220825195e+01,-1.197100803256034712e-01,-7.445967197418212891e+00,7.058106422424316406e+00,-3.097534179687500000e+00,3.128051757812500000e-01,1.831054687500000000e-01
6.957535672187805176e+01,-1.197100803256034712e-01,-7.445967197418212891e+00,7.058106422424316406e+00,1.541137695312500000e+00,-7.629394531250000000e-03,-9.536743164062500000e-01
6.958783745765686035e+01,-1.819593310356139859e-01,-6.694187641143798828e+00,7.467514991760253906e+00,5.653381347656250000e+00,-7.095336914062500000e-01,-2.517700195312500000e+00
6.959987688064575195e+01,0.000000000000000000e+00,-5.753266811370849609e+00,7.762001991271972656e+00,5.653381347656250000e+00,-7.095336914062500000e-01,-2.517700195312500000e+00
6.961740708351135254e+01,7.254431247711181641e-01,-5.753266811370849609e+00,8.039729118347167969e+00,9.002685546875000000e-01,-4.577636718750000000e-01,4.653930664062500000e-01
6.963016867637634277e+01,7.254431247711181641e-01,-5.851428985595702237e+00,8.039729118347167969e+00,-3.463745117187500000e+00,8.544921875000000000e-01,9.918212890625000000e-01
6.964223265647888184e+01,1.771709173917770386e-01,-6.591237068176269531e+00,7.546523571014403409e+00,-3.463745117187500000e+00,8.544921875000000000e-01,9.918212890625000000e-01
6.965908455848693848e+01,7.900865375995635986e-02,-7.082048416137695312e+00,7.103596210479736328e+00,-1.609802246093750000e+00,6.027221679687500000e-01,-2.288818359375000000e-02
6.967000365257263184e+01,7.900865375995635986e-02,-7.082048416137695312e+00,7.103596210479736328e+00,2.647399902343750000e+00,-9.307861328125000000e-01,-1.296997070312500000e+00
6.968335342407226562e+01,3.184288144111632746e-01,-6.536170482635497159e+00,7.635108947753906250e+00,2.647399902343750000e+00,-9.994506835937500000e-01,-1.296997070312500000e+00
6.969833135604858398e+01,4.692635238170623779e-01,-6.093243122100830078e+00,7.635108947753906250e+00,2.342224121093750000e+00,-9.994506835937500000e-01,3.051757812500000000e-02
6.971131920814514160e+01,4.692635238170623779e-01,-6.050147533416747159e+00,7.635108947753906250e+00,3.280639648437500000e-01,-9.918212890625000000e-02,1.014709472656250000e+00
6.972373175621032715e+01,3.495534360408782959e-01,-6.050147533416747159e+00,7.603984355926513672e+00,-2.052307128906250000e+00,4.959106445312500000e-01,3.051757812500000000e-02
6.974008154869079590e+01,1.867477297782897949e-01,-7.053318023681641513e+00,7.603984355926513672e+00,-2.052307128906250000e+00,4.959106445312500000e-01,1.235961914062500000e+00
6.975099968910217285e+01,-7.182605098932981491e-03,-7.184998989105224609e+00,7.084442615509032315e+00,-1.853942871093750000e+00,8.392333984375000000e-02,-3.204345703125000000e-01
6.976412653923034668e+01,-5.746084079146385193e-02,-7.184998989105224609e+00,7.084442615509032315e+00,3.547668457031250000e+00,-8.239746093750000000e-01,-1.029968261718750000e+00
6.978248763084411621e+01,-5.746084079146385193e-02,-6.318298339843750000e+00,7.508216381072997159e+00,3.547668457031250000e+00,-1.373291015625000000e+00,-1.029968261718750000e+00
6.979319262504577637e+01,5.698199868202210583e-01,-6.040570735931396484e+00,7.793126583099365234e+00,2.258300781250000000e+00,-1.373291015625000000e+00,-8.468627929687500000e-01
6.980632758140563965e+01,5.698199868202210583e-01,-6.040570735931396484e+00,7.793126583099365234e+00,-1.106262207031250000e+00,-3.890991210937500000e-01,1.403808593750000000e+00
6.981938743591308594e+01,2.466027736663818637e-01,-6.569689273834228516e+00,7.639897346496582031e+00,-2.388000488281250000e+00,2.365112304687500000e-01,1.403808593750000000e+00
6.983347010612487793e+01,-2.226607501506805142e-01,-6.828263282775878906e+00,6.919242858886718750e+00,-2.388000488281250000e+00,2.365112304687500000e-01,-3.051757812500000000e-01
6.984541749954223633e+01,-2.226607501506805142e-01,-6.828263282775878906e+00,6.919242858886718750e+00,2.525329589843750000e+00,-6.713867187500000000e-01,-1.060485839843750000e+00
6.986071705818176270e+01,3.208230137825012207e-01,-6.591237068176269531e+00,7.565677165985107422e+00,3.082275390625000000e+00,-6.713867187500000000e-01,-1.640319824218750000e+00
6.987597489356994629e+01,4.309563040733337402e-01,-6.078877925872802734e+00,7.948749542236327237e+00,3.082275390625000000e+00,-1.296997070312500000e-01,-1.640319824218750000e+00
6.988771867752075195e+01,4.309563040733337402e-01,-6.078877925872802734e+00,7.948749542236327237e+00,9.841918945312500000e-01,9.384155273437500000e-01,-1.068115234375000000e+00
6.990286612510681152e+01,2.920925915241240900e-01,-6.277596950531005859e+00,7.584830760955809659e+00,-2.372741699218750000e+00,9.384155273437500000e-01,-7.705688476562500000e-01
6.991437745094299316e+01,3.830722719430923462e-02,-6.615179061889647549e+00,7.220911979675292969e+00,-2.372741699218750000e+00,8.316040039062500000e-01,7.629394531250000000e-02
6.993019604682922363e+01,3.830722719430923462e-02,-6.636726856231689453e+00,7.220911979675292969e+00,-1.213073730468750000e+00,1.144409179687500000e-01,7.629394531250000000e-02
6.994183945655822754e+01,4.070142656564712524e-02,-6.636726856231689453e+00,7.244854450225830078e+00,1.998901367187500000e+00,-5.645751953125000000e-01,-4.196166992187500000e-01
6.995750951766967773e+01,4.525041282176970880e-01,-6.196193695068358487e+00,7.491456985473632812e+00,1.998901367187500000e+00,-5.645751953125000000e-01,-4.196166992187500000e-01
6.997175908088684082e+01,2.202665507793426514e-01,-6.196193695068358487e+00,7.776367187500000000e+00,-6.103515625000000000e-02,-4.272460937500000000e-01,-2.975463867187500000e-01
6.998344898223876953e+01,4.525041282176970880e-01,-6.212953090667724609e+00,7.795520782470702237e+00,-8.010864257812500000e-01,-4.272460937500000000e-01,5.340576171875000000e-02
6.999894857406616211e+01,2.202665507793426514e-01,-6.253654956817627841e+00,7.795520782470702237e+00,-1.296997070312500000e+00,-4.272460937500000000e-01,2.365112304687500000e-01
7.001075506210327148e+01,1.723825186491012573e-01,-6.885724067687987393e+00,7.302315235137939453e+00,-1.296997070312500000e+00,3.356933593750000000e-01,1.747131347656250000e+00
7.002977299690246582e+01,6.943184882402420044e-02,-6.892906665802002841e+00,7.273584842681884766e+00,-9.994506835937500000e-01,3.356933593750000000e-01,2.365112304687500000e-01
7.004050779342651367e+01,5.027823522686958313e-02,-6.892906665802002841e+00,7.273584842681884766e+00,2.174377441406250000e+00,-1.197814941406250000e+00,9.231567382812500000e-01
7.005241060256958008e+01,5.027823522686958313e-02,-6.514622688293457031e+00,7.414842605590820312e+00,2.174377441406250000e+00,-1.197814941406250000e+00,-1.968383789062500000e+00
7.006813454627990723e+01,5.027823522686958313e-02,-6.315904140472412109e+00,7.606378555297852451e+00,1.907348632812500000e+00,-6.561279296875000000e-01,8.773803710937500000e-01
7.008049798011779785e+01,3.471592366695404053e-01,-6.315904140472412109e+00,7.606378555297852451e+00,-3.128051757812500000e-01,7.247924804687500000e-01,-4.043579101562500000e-01
7.009439349174499512e+01,-2.346317619085311890e-01,-6.370970726013183594e+00,7.532158374786377841e+00,-3.128051757812500000e-01,7.247924804687500000e-01,-4.043579101562500000e-01
7.010665202140808105e+01,3.471592366695404053e-01,-6.710947036743164062e+00,7.328651428222656250e+00,3.051757812500000000e-01,1.220703125000000000e-01,-4.043579101562500000e-01
7.012249422073364258e+01,2.394201699644327164e-03,-6.710947036743164062e+00,7.328651428222656250e+00,1.914978027343750000e+00,-8.392333984375000000e-01,-4.348754882812500000e-01
7.013320589065551758e+01,1.795651316642761230e-01,-6.540958881378173828e+00,7.357381820678710938e+00,1.914978027343750000e+00,-1.449584960937500000e-01,9.613037109375000000e-01
7.014891767501831055e+01,1.795651316642761230e-01,-6.433219909667968750e+00,7.654262542724608487e+00,7.019042968750000000e-01,-3.967285156250000000e-01,-1.831054687500000000e-01
7.016312575340270996e+01,1.795651316642761230e-01,-6.296750545501708984e+00,7.654262542724608487e+00,2.288818359375000000e-01,-1.525878906250000000e-01,6.103515625000000000e-01
7.017638468742370605e+01,5.291185379028320312e-01,-6.296750545501708984e+00,7.651868343353270596e+00,-1.342773437500000000e+00,-1.525878906250000000e-01,-1.831054687500000000e-01
7.019070577621459961e+01,8.379705995321273804e-02,-6.330269336700440341e+00,7.544129371643066406e+00,-1.388549804687500000e+00,5.340576171875000000e-02,2.899169921875000000e-01
7.020552277565002441e+01,3.303998410701752264e-01,-6.682216644287108487e+00,7.529764175415039062e+00,-1.342773437500000000e+00,5.340576171875000000e-02,-2.136230468750000000e-01
7.021790003776550293e+01,1.699883192777633389e-01,-6.682216644287108487e+00,7.529764175415039062e+00,2.258300781250000000e+00,-7.629394531250000000e-01,-2.136230468750000000e-01
7.023002743721008301e+01,3.303998410701752264e-01,-6.660668849945067471e+00,7.759607791900634766e+00,2.258300781250000000e+00,-7.629394531250000000e-01,-2.136230468750000000e-01
7.024742197990417480e+01,1.795651316642761230e-01,-6.069301128387451172e+00,7.759607791900634766e+00,7.171630859375000000e-01,-5.722045898437500000e-01,-1.525878906250000000e-01
7.025952315330505371e+01,1.795651316642761230e-01,-6.069301128387451172e+00,7.699752330780028409e+00,-9.536743164062500000e-01,-2.365112304687500000e-01,8.239746093750000000e-01
7.027137470245361328e+01,1.747767180204391479e-01,-6.696581840515137607e+00,7.570465564727782315e+00,-9.536743164062500000e-01,-2.365112304687500000e-01,-1.525878906250000000e-01
7.028930544853210449e+01,1.053448766469955444e-01,-6.823474884033202237e+00,7.307103633880615234e+00,1.251220703125000000e+00,-3.967285156250000000e-01,1.983642578125000000e-01
7.030012106895446777e+01,1.053448766469955444e-01,-6.823474884033202237e+00,7.307103633880615234e+00,1.876831054687500000e+00,-1.205444335937500000e+00,-4.119873046875000000e-01
7.031458616256713867e+01,3.351882472634315491e-02,-6.612784862518311435e+00,7.338228225708007812e+00,1.876831054687500000e+00,-1.373291015625000000e+00,-2.975463867187500000e-01
7.032871317863464355e+01,3.327940404415130615e-01,-6.380547523498535156e+00,7.515398979187012607e+00,1.617431640625000000e+00,-1.426696777343750000e+00,-2.975463867187500000e-01
7.034071660041809082e+01,1.316810846328735629e-01,-6.612784862518311435e+00,7.627926349639892578e+00,1.045227050781250000e+00,-1.373291015625000000e+00,-1.220703125000000000e-01
7.035584378242492676e+01,5.291185379028320312e-01,-6.272808551788330078e+00,7.742848396301268643e+00,6.790161132812500000e-01,2.746582031250000000e-01,2.212524414062500000e-01
7.037031340599060059e+01,1.316810846328735629e-01,-6.713341236114502841e+00,7.627926349639892578e+00,6.713867187500000000e-01,2.746582031250000000e-01,-1.220703125000000000e-01
7.038222599029541016e+01,-2.059013396501541138e-01,-6.710947036743164062e+00,7.158662796020507812e+00,6.713867187500000000e-01,4.501342773437500000e-01,1.098632812500000000e+00
7.039534068107604980e+01,-2.059013396501541138e-01,-6.710947036743164062e+00,7.158662796020507812e+00,8.087158203125000000e-01,9.918212890625000000e-02,-2.616882324218750000e+00
7.041235303878784180e+01,4.189852774143218994e-01,-6.378153324127197266e+00,7.764396190643310547e+00,8.087158203125000000e-01,1.220703125000000000e-01,1.098632812500000000e+00
7.042302513122558594e+01,5.195417404174804688e-01,-6.186616897583007812e+00,7.764396190643310547e+00,1.220703125000000000e-01,-1.449584960937500000e-01,-1.907348632812500000e-01
7.043728017807006836e+01,4.189852774143218994e-01,-6.186616897583007812e+00,7.352593421936035156e+00,-6.256103515625000000e-01,1.220703125000000000e-01,4.196166992187500000e-01
7.044951796531677246e+01,5.195417404174804688e-01,-6.471527099609375000e+00,7.352593421936035156e+00,1.220703125000000000e-01,-1.449584960937500000e-01,-1.907348632812500000e-01
7.046383309364318848e+01,-3.351882398128508966e-01,-6.959944248199462891e+00,7.366958618164062500e+00,7.171630859375000000e-01,-7.553100585937500000e-01,3.967285156250000000e-01
7.047571444511413574e+01,7.589619159698486328e-01,-6.471527099609375000e+00,7.797914981842041016e+00,1.770019531250000000e+00,-7.553100585937500000e-01,-5.569458007812500000e-01
7.049080443382263184e+01,-1.963245421648025235e-01,-6.435614109039307529e+00,7.417236804962157315e+00,1.770019531250000000e+00,-2.822875976562500000e-01,-6.027221679687500000e-01
7.050606799125671387e+01,2.274491637945174893e-01,-6.430825710296630859e+00,7.797914981842041016e+00,8.163452148437500000e-01,-1.373291015625000000e-01,-6.027221679687500000e-01
7.051766157150268555e+01,2.274491637945174893e-01,-6.435614109039307529e+00,7.584830760955809659e+00,-7.934570312500000000e-01,2.899169921875000000e-01,-2.517700195312500000e-01
7.053354001045227051e+01,2.274491637945174893e-01,-6.507440090179442471e+00,7.623137950897217685e+00,-7.934570312500000000e-01,2.899169921875000000e-01,2.593994140625000000e-01
7.054699969291687012e+01,3.088520169258117676e-01,-6.682216644287108487e+00,7.584830760955809659e+00,1.449584960937500000e-01,-2.288818359375000000e-01,2.593994140625000000e-01
7.055945968627929688e+01,2.346317619085311890e-01,-6.708552837371826172e+00,7.623137950897217685e+00,5.645751953125000000e-01,-2.288818359375000000e-01,-8.926391601562500000e-01
7.057468175888061523e+01,2.346317619085311890e-01,-6.682216644287108487e+00,7.522581577301025391e+00,9.536743164062500000e-01,-2.288818359375000000e-01,-8.926391601562500000e-01
7.058636689186096191e+01,2.346317619085311890e-01,-6.560112476348877841e+00,7.630320549011230469e+00,9.536743164062500000e-01,-1.296997070312500000e-01,1.983642578125000000e-01
7.060174751281738281e+01,3.974374830722808838e-01,-6.366182327270507812e+00,7.572859764099121094e+00,6.408691406250000000e-01,-7.629394531250000000e-02,1.983642578125000000e-01
7.061354994773864746e+01,3.974374830722808838e-01,-6.366182327270507812e+00,7.718905925750732422e+00,-2.288818359375000000e-02,1.907348632812500000e-01,-5.798339843750000000e-01
7.062921357154846191e+01,1.556231081485748569e-01,-6.433219909667968750e+00,7.572859764099121094e+00,-9.765625000000000000e-01,-7.629394531250000000e-02,-5.798339843750000000e-01
7.064155697822570801e+01,4.788403213024139404e-02,-6.533776283264160156e+00,7.572859764099121094e+00,-9.765625000000000000e-01,-3.967285156250000000e-01,1.380920410156250000e+00
7.065637493133544922e+01,4.788403213024139404e-02,-6.533776283264160156e+00,7.568071365356445312e+00,-5.035400390625000000e-01,-1.182556152343750000e+00,1.380920410156250000e+00
7.067158985137939453e+01,2.011129409074783603e-01,-6.500257492065429688e+00,7.572859764099121094e+00,1.617431640625000000e+00,-1.396179199218750000e+00,-3.890991210937500000e-01
7.068266344070434570e+01,4.118026793003082275e-01,-6.347028732299804688e+00,7.668627738952637607e+00,1.617431640625000000e+00,-1.396179199218750000e+00,-9.994506835937500000e-01
7.069786500930786133e+01,4.118026793003082275e-01,-6.320692539215087891e+00,7.687781333923339844e+00,6.332397460937500000e-01,-2.136230468750000000e-01,-3.890991210937500000e-01
7.071347308158874512e+01,1.197100803256034712e-01,-6.320692539215087891e+00,7.687781333923339844e+00,-1.502990722656250000e+00,1.144409179687500000e-01,2.517700195312500000e-01
7.072535157203674316e+01,1.005564704537391663e-01,-6.696581840515137607e+00,7.424419403076172763e+00,-1.502990722656250000e+00,1.144409179687500000e-01,2.517700195312500000e-01
7.073949265480041504e+01,1.005564704537391663e-01,-6.861782073974608487e+00,7.424419403076172763e+00,-1.449584960937500000e-01,-1.144409179687500000e-01,-1.037597656250000000e+00
7.075425314903259277e+01,1.005564704537391663e-01,-6.861782073974608487e+00,7.462726593017577237e+00,3.417968750000000000e+00,-9.384155273437500000e-01,-1.037597656250000000e+00
7.076703929901123047e+01,3.998316824436187744e-01,-6.665457248687744141e+00,7.742848396301268643e+00,3.417968750000000000e+00,-9.384155273437500000e-01,-9.078979492187500000e-01
7.077830696105957031e+01,3.998316824436187744e-01,-6.234500885009766513e+00,7.764396190643310547e+00,1.029968261718750000e+00,8.697509765625000000e-01,-8.544921875000000000e-01
7.079631757736206055e+01,3.495534360408782959e-01,-6.234500885009766513e+00,7.742848396301268643e+00,-2.334594726562500000e+00,8.697509765625000000e-01,-7.476806640625000000e-01
7.080705714225769043e+01,1.699883192777633389e-01,-6.603208065032958984e+00,7.376535415649414062e+00,-2.334594726562500000e+00,6.790161132812500000e-01,5.722045898437500000e-01
7.082166957855224609e+01,1.244984865188598494e-01,-7.007828235626221591e+00,7.376535415649414062e+00,-7.553100585937500000e-01,2.517700195312500000e-01,5.722045898437500000e-01
7.083826184272766113e+01,1.244984865188598494e-01,-7.007828235626221591e+00,7.515398979187012607e+00,2.090454101562500000e+00,-2.746582031250000000e-01,-9.841918945312500000e-01
7.084961152076721191e+01,1.867477297782897949e-01,-6.672639846801757812e+00,7.532158374786377841e+00,2.571105957031250000e+00,-4.119873046875000000e-01,-1.060485839843750000e+00
7.086293172836303711e+01,2.920925915241240900e-01,-6.323086738586425781e+00,7.632714748382567471e+00,2.571105957031250000e+00,-7.553100585937500000e-01,-1.060485839843750000e+00
7.087713456153869629e+01,4.357447028160095215e-01,-6.323086738586425781e+00,7.805097579956054688e+00,-1.068115234375000000e-01,-4.119873046875000000e-01,4.348754882812500000e-01
7.088997745513916016e+01,4.357447028160095215e-01,-6.514622688293457031e+00,7.805097579956054688e+00,-1.739501953125000000e+00,2.441406250000000000e-01,5.340576171875000000e-01
7.090155601501464844e+01,7.182604819536209106e-02,-6.742072105407714844e+00,7.486668586730957031e+00,-1.739501953125000000e+00,8.392333984375000000e-01,5.340576171875000000e-01
7.091939878463745117e+01,3.830722719430923462e-02,-6.854599475860596591e+00,7.393294811248778409e+00,-4.577636718750000000e-01,2.441406250000000000e-01,-6.179809570312500000e-01
7.093031668663024902e+01,3.830722719430923462e-02,-6.854599475860596591e+00,7.393294811248778409e+00,2.670288085937500000e+00,-5.187988281250000000e-01,-1.281738281250000000e+00
7.094335865974426270e+01,1.699883192777633389e-01,-6.351817131042480469e+00,7.673416137695311612e+00,2.670288085937500000e+00,-5.187988281250000000e-01,-1.281738281250000000e+00
7.096140313148498535e+01,4.165910780429840088e-01,-6.303933143615722656e+00,7.900865554809570312e+00,8.316040039062500000e-01,-3.051757812500000000e-02,-8.087158203125000000e-01
7.097222590446472168e+01,4.165910780429840088e-01,-6.303933143615722656e+00,7.900865554809570312e+00,-1.296997070312500000e+00,5.416870117187500000e-01,-1.220703125000000000e-01
7.098629641532897949e+01,1.556231081485748569e-01,-6.452373504638672763e+00,7.371747016906737393e+00,-1.296997070312500000e+00,5.416870117187500000e-01,9.155273437500000000e-02
7.100038719177246094e+01,2.154781483113765717e-02,-6.864176273345947266e+00,7.180210590362548828e+00,-1.029968261718750000e+00,4.348754882812500000e-01,9.155273437500000000e-02
7.101327586174011230e+01,2.154781483113765717e-02,-6.864176273345947266e+00,7.180210590362548828e+00,1.296997070312500000e+00,-4.653930664062500000e-01,-1.983642578125000000e-01
7.102551603317260742e+01,2.561795711517333984e-01,-6.555324077606201172e+00,7.718905925750732422e+00,2.876281738281250000e+00,-6.942749023437500000e-01,-7.781982421875000000e-01
7.103998112678527832e+01,3.303998410701752264e-01,-6.212953090667724609e+00,7.718905925750732422e+00,2.876281738281250000e+00,-4.653930664062500000e-01,-7.781982421875000000e-01
7.105195665359497070e+01,3.303998410701752264e-01,-6.212953090667724609e+00,7.694963932037353516e+00,6.713867187500000000e-01,-4.577636718750000000e-02,-6.256103515625000000e-01
7.106739068031311035e+01,3.088520169258117676e-01,-6.351817131042480469e+00,7.536946773529052734e+00,-1.968383789062500000e+00,6.103515625000000000e-02,-5.111694335937500000e-01
7.108190202713012695e+01,1.125274747610092302e-01,-6.619967460632324219e+00,7.467514991760253906e+00,-1.968383789062500000e+00,6.103515625000000000e-02,4.425048828125000000e-01
7.109353995323181152e+01,1.125274747610092302e-01,-6.861782073974608487e+00,7.338228225708007812e+00,5.111694335937500000e-01,-2.975463867187500000e-01,4.425048828125000000e-01
7.110885357856750488e+01,1.149216815829277039e-01,-6.861782073974608487e+00,7.338228225708007812e+00,2.273559570312500000e+00,-2.975463867187500000e-01,-4.882812500000000000e-01
7.112160348892211914e+01,2.178723514080047885e-01,-6.543353080749512607e+00,7.558494567871093750e+00,2.273559570312500000e+00,-1.983642578125000000e-01,-9.841918945312500000e-01
7.113601946830749512e+01,3.040636181831359863e-01,-6.282385349273682529e+00,7.807491779327392578e+00,1.083374023437500000e+00,-1.678466796875000000e-01,-9.841918945312500000e-01
7.114835786819458008e+01,2.274491637945174893e-01,-6.282385349273682529e+00,7.807491779327392578e+00,-9.460449218750000000e-01,1.602172851562500000e-01,5.111694335937500000e-01
7.116273784637451172e+01,2.274491637945174893e-01,-6.500257492065429688e+00,7.642291545867919922e+00,-9.460449218750000000e-01,1.983642578125000000e-01,5.111694335937500000e-01
7.117851209640502930e+01,1.340752989053726196e-01,-6.761225700378417969e+00,7.347805023193358487e+00,-3.738403320312500000e-01,1.983642578125000000e-01,-1.525878906250000000e-02
7.118964815139770508e+01,1.340752989053726196e-01,-6.761225700378417969e+00,7.347805023193358487e+00,1.106262207031250000e+00,-1.449584960937500000e-01,-5.035400390625000000e-01
7.120582008361816406e+01,1.819593310356139859e-01,-6.440402507781982422e+00,7.383718013763427734e+00,1.823425292968750000e+00,-4.043579101562500000e-01,-1.106262207031250000e+00
7.121660971641540527e+01,2.202665507793426514e-01,-6.165069103240967685e+00,7.544129371643066406e+00,1.823425292968750000e+00,-4.043579101562500000e-01,-1.106262207031250000e+00
7.123172760009765625e+01,2.418143749237060547e-01,-6.165069103240967685e+00,7.697358131408691406e+00,2.899169921875000000e-01,-1.068115234375000000e-01,-2.822875976562500000e-01
7.124433374404907227e+01,2.513911724090576172e-01,-6.440402507781982422e+00,7.697358131408691406e+00,-9.918212890625000000e-01,-1.068115234375000000e-01,6.866455078125000000e-02
7.125961518287658691e+01,2.418143749237060547e-01,-6.770802497863769531e+00,7.522581577301025391e+00,-9.918212890625000000e-01,-1.602172851562500000e-01,6.866455078125000000e-02
7.127032756805419922e+01,1.101332753896713257e-01,-6.770802497863769531e+00,7.400477409362792969e+00,7.247924804687500000e-01,-3.051757812500000000e-01,-6.790161132812500000e-01
7.128569865226745605e+01,1.101332753896713257e-01,-6.670245647430419922e+00,7.400477409362792969e+00,1.510620117187500000e+00,-2.212524414062500000e-01,-9.307861328125000000e-01
7.129863095283508301e+01,2.346317619085311890e-01,-6.342240333557128906e+00,7.536946773529052734e+00,1.510620117187500000e+00,-2.212524414062500000e-01,-9.307861328125000000e-01
7.131302690505981445e+01,2.489969730377196988e-01,-6.342240333557128906e+00,7.625532150268554688e+00,3.204345703125000000e-01,2.288818359375000000e-02,-6.561279296875000000e-01
7.132832121849060059e+01,2.346317619085311890e-01,-6.375759124755858487e+00,7.675810337066650391e+00,-4.425048828125000000e-01,3.280639648437500000e-01,2.822875976562500000e-01
7.134063267707824707e+01,9.576806426048280196e-02,-6.648697853088378906e+00,7.675810337066650391e+00,-4.425048828125000000e-01,3.280639648437500000e-01,2.822875976562500000e-01
7.135465264320373535e+01,9.576806426048280196e-02,-6.830657482147217685e+00,7.501033782958983487e+00,4.272460937500000000e-01,1.831054687500000000e-01,-3.890991210937500000e-01
7.136699104309082031e+01,1.604115068912506104e-01,-6.830657482147217685e+00,7.469909191131592685e+00,1.495361328125000000e+00,-4.501342773437500000e-01,-4.501342773437500000e-01
7.138411760330200195e+01,2.968810200691223145e-01,-6.466738700866699219e+00,7.469909191131592685e+00,1.495361328125000000e+00,-4.501342773437500000e-01,-5.645751953125000000e-01
7.139500331878662109e+01,3.088520169258117676e-01,-6.363788127899169922e+00,7.477091789245604581e+00,7.858276367187500000e-01,-2.593994140625000000e-01,-5.645751953125000000e-01
7.140937328338623047e+01,3.615244626998900812e-01,-6.363788127899169922e+00,7.477091789245604581e+00,-1.907348632812500000e-01,-2.593994140625000000e-01,1.037597656250000000e+00
7.142336058616638184e+01,3.615244626998900812e-01,-6.612784862518311435e+00,7.445967197418212891e+00,-1.907348632812500000e-01,-6.942749023437500000e-01,1.037597656250000000e+00
7.143544077873229980e+01,2.489969730377196988e-01,-6.746860504150391513e+00,7.309497833251952237e+00,1.045227050781250000e+00,-6.942749023437500000e-01,-2.593994140625000000e-01
7.145130872726440430e+01,1.843535304069519043e-01,-6.746860504150391513e+00,7.309497833251952237e+00,1.197814941406250000e+00,-1.754760742187500000e-01,-5.493164062500000000e-01
7.146513295173645020e+01,1.843535304069519043e-01,-6.445190906524657315e+00,7.589619159698486328e+00,1.045227050781250000e+00,-6.103515625000000000e-02,-5.493164062500000000e-01
7.147820067405700684e+01,1.843535304069519043e-01,-6.344634532928467685e+00,7.625532150268554688e+00,3.204345703125000000e-01,0.000000000000000000e+00,-1.754760742187500000e-01
7.149059796333312988e+01,1.556231081485748569e-01,-6.344634532928467685e+00,7.589619159698486328e+00,-7.476806640625000000e-01,0.000000000000000000e+00,-1.754760742187500000e-01
7.150751066207885742e+01,1.556231081485748569e-01,-6.471527099609375000e+00,7.560888767242432529e+00,-7.476806640625000000e-01,-1.220703125000000000e-01,4.348754882812500000e-01
7.151841211318969727e+01,1.556231081485748569e-01,-6.751648902893066406e+00,7.469909191131592685e+00,-2.822875976562500000e-01,-1.220703125000000000e-01,-3.051757812500000000e-01
7.153170943260192871e+01,2.585737705230712891e-01,-6.751648902893066406e+00,7.443572998046875000e+00,6.713867187500000000e-01,-6.179809570312500000e-01,-4.653930664062500000e-01
7.154619860649108887e+01,2.585737705230712891e-01,-6.526593685150146484e+00,7.443572998046875000e+00,9.841918945312500000e-01,-1.373291015625000000e-01,-5.950927734375000000e-01
7.156292915344238281e+01,3.160346150398254395e-01,-6.445190906524657315e+00,7.515398979187012607e+00,9.841918945312500000e-01,-1.373291015625000000e-01,-5.950927734375000000e-01
7.157390546798706055e+01,3.399766385555267334e-01,-6.452373504638672763e+00,7.788338184356689453e+00,-5.874633789062500000e-01,2.670288085937500000e-01,-4.119873046875000000e-01
7.158833956718444824e+01,3.399766385555267334e-01,-6.452373504638672763e+00,7.788338184356689453e+00,-5.874633789062500000e-01,2.670288085937500000e-01,-1.220703125000000000e-01
7.160021591186523438e+01,2.944867908954620361e-01,-6.579266071319580078e+00,7.388506412506102627e+00,-1.144409179687500000e-01,1.907348632812500000e-01,-3.509521484375000000e-01
7.161328125000000000e+01,1.268926858901977539e-01,-6.579266071319580078e+00,7.297526836395263672e+00,4.501342773437500000e-01,1.831054687500000000e-01,-3.509521484375000000e-01
7.163037657737731934e+01,1.771709173917770386e-01,-6.411672115325927734e+00,7.297526836395263672e+00,1.007080078125000000e+00,-2.441406250000000000e-01,-3.509521484375000000e-01
7.164315676689147949e+01,1.771709173917770386e-01,-6.387730121612548828e+00,7.486668586730957031e+00,1.007080078125000000e+00,-2.441406250000000000e-01,-2.746582031250000000e-01
7.165506601333618164e+01,2.466027736663818637e-01,-6.387730121612548828e+00,7.735665798187255859e+00,7.247924804687500000e-01,-2.136230468750000000e-01,-2.746582031250000000e-01
7.166937208175659180e+01,2.466027736663818637e-01,-6.423643112182617188e+00,7.735665798187255859e+00,7.095336914062500000e-01,1.068115234375000000e-01,-2.746582031250000000e-01
7.168134617805480957e+01,2.394201606512069425e-01,-6.543353080749512607e+00,7.639897346496582031e+00,-9.918212890625000000e-02,6.103515625000000000e-02,5.340576171875000000e-02
7.169678926467895508e+01,1.053448766469955444e-01,-6.543353080749512607e+00,7.556100368499755859e+00,-9.918212890625000000e-02,1.068115234375000000e-01,5.340576171875000000e-02
7.170893168449401855e+01,1.556231081485748569e-01,-6.461950302124022549e+00,7.479485988616942471e+00,3.967285156250000000e-01,6.103515625000000000e-02,-5.035400390625000000e-01
