# elapsed time, f1_acc_x, f1_acc_y, f1_acc_z, f1_gyro_x, f1_gyro_y, f1_gyro_z
4.492201566696166992e+01,-1.355118155479431152e+00,-8.248024940490722656e+00,4.508281707763671875e+00,-3.494262695312500000e+00,-2.899169921875000000e-01,2.441406250000000000e-01
4.493686079978942871e+01,-1.376665949821472168e+00,-8.248024940490722656e+00,4.508281707763671875e+00,-3.684997558593750000e+00,-2.899169921875000000e-01,2.441406250000000000e-01
4.494902443885803223e+01,-1.383848547935485840e+00,-8.248024940490722656e+00,4.508281707763671875e+00,-3.684997558593750000e+00,-3.509521484375000000e-01,2.441406250000000000e-01
4.496326422691345215e+01,-1.383848547935485840e+00,-8.240841865539549005e+00,4.474762916564941406e+00,-3.684997558593750000e+00,-3.509521484375000000e-01,3.433227539062500000e-01
4.497547602653503418e+01,-1.383848547935485840e+00,-8.240841865539549005e+00,4.474762916564941406e+00,-3.890991210937500000e+00,-4.653930664062500000e-01,2.059936523437500000e-01
4.499010443687438965e+01,-1.400607943534850852e+00,-8.228871345520019531e+00,4.474762916564941406e+00,-3.616333007812500000e+00,-4.653930664062500000e-01,2.059936523437500000e-01
4.500252318382263184e+01,-1.400607943534850852e+00,-8.276755332946777344e+00,4.462791919708251953e+00,-3.616333007812500000e+00,-4.348754882812500000e-01,2.059936523437500000e-01
4.501731705665588379e+01,-1.376665949821472168e+00,-8.216899871826173651e+00,4.462791919708251953e+00,-3.616333007812500000e+00,-3.662109375000000000e-01,2.593994140625000000e-01
4.502973246574401855e+01,-1.345541357994079590e+00,-8.216899871826173651e+00,4.462791919708251953e+00,-3.723144531250000000e+00,-2.288818359375000000e-01,2.593994140625000000e-01
4.504696869850158691e+01,-1.335964560508728027e+00,-8.216899871826173651e+00,4.489128112792968750e+00,-3.723144531250000000e+00,-1.220703125000000000e-01,1.525878906250000000e-01
4.505941438674926758e+01,-1.345541357994079590e+00,-8.233659744262695312e+00,4.505887508392333984e+00,-3.723144531250000000e+00,-2.288818359375000000e-01,4.577636718750000000e-02
4.507173681259155273e+01,-1.347935557365417703e+00,-8.233659744262695312e+00,4.489128112792968750e+00,-3.494262695312500000e+00,-5.340576171875000000e-01,1.525878906250000000e-01
4.508881568908691406e+01,-1.347935557365417703e+00,-8.233659744262695312e+00,4.510675907135009766e+00,-3.509521484375000000e+00,-5.340576171875000000e-01,2.059936523437500000e-01
4.509986352920532227e+01,-1.347935557365417703e+00,-8.271966934204103339e+00,4.510675907135009766e+00,-3.509521484375000000e+00,-5.340576171875000000e-01,2.059936523437500000e-01
4.511354780197143555e+01,-1.395819544792175293e+00,-8.271966934204103339e+00,4.510675907135009766e+00,-3.570556640625000000e+00,-3.662109375000000000e-01,2.059936523437500000e-01
4.512787938117980957e+01,-1.395819544792175293e+00,-8.267178535461425781e+00,4.558559894561768466e+00,-3.784179687500000000e+00,-3.967285156250000000e-01,1.220703125000000000e-01
4.514061427116394043e+01,-1.395819544792175293e+00,-8.264783859252929688e+00,4.493916511535644531e+00,-3.570556640625000000e+00,-3.967285156250000000e-01,2.059936523437500000e-01
4.515234017372131348e+01,-1.398213744163513184e+00,-8.245630264282228339e+00,4.455609321594238281e+00,-3.440856933593750000e+00,-3.967285156250000000e-01,2.059936523437500000e-01
4.516988253593444824e+01,-1.398213744163513184e+00,-8.240841865539549005e+00,4.455609321594238281e+00,-3.440856933593750000e+00,-1.373291015625000000e-01,2.059936523437500000e-01
4.518285083770751953e+01,-1.393425345420837402e+00,-8.180987358093263495e+00,4.525041103363037109e+00,-3.486633300781250000e+00,-1.373291015625000000e-01,2.136230468750000000e-01
4.519500398635864258e+01,-1.357512354850769043e+00,-8.180987358093263495e+00,4.525041103363037109e+00,-3.723144531250000000e+00,-2.517700195312500000e-01,1.678466796875000000e-01
4.521185398101806641e+01,-1.357512354850769043e+00,-8.195352554321289062e+00,4.546588897705078125e+00,-3.723144531250000000e+00,-3.814697265625000000e-01,1.678466796875000000e-01
4.522261667251586914e+01,-1.383848547935485840e+00,-8.233659744262695312e+00,4.479551315307617188e+00,-3.723144531250000000e+00,-4.501342773437500000e-01,1.678466796875000000e-01
4.523676466941833496e+01,-1.386242747306823508e+00,-8.243236541748048651e+00,4.479551315307617188e+00,-3.807067871093750000e+00,-5.340576171875000000e-01,1.831054687500000000e-01
4.525085711479187012e+01,-1.410184741020202637e+00,-8.243236541748048651e+00,4.479551315307617188e+00,-3.471374511718750000e+00,-5.340576171875000000e-01,2.670288085937500000e-01
4.526406574249267578e+01,-1.410184741020202637e+00,-8.243236541748048651e+00,4.508281707763671875e+00,-3.471374511718750000e+00,-5.340576171875000000e-01,1.831054687500000000e-01
4.527536654472351074e+01,-1.355118155479431152e+00,-8.231265068054200995e+00,4.508281707763671875e+00,-3.471374511718750000e+00,-4.196166992187500000e-01,4.577636718750000000e-02
4.529074478149414062e+01,-1.355118155479431152e+00,-8.248024940490722656e+00,4.484339714050292969e+00,-3.456115722656250000e+00,-4.425048828125000000e-01,4.577636718750000000e-02
4.530553674697875977e+01,-1.364694952964782715e+00,-8.248024940490722656e+00,4.484339714050292969e+00,-3.463745117187500000e+00,-3.509521484375000000e-01,2.593994140625000000e-01
4.531780052185058594e+01,-1.400607943534850852e+00,-8.248024940490722656e+00,4.505887508392333984e+00,-3.463745117187500000e+00,-4.272460937500000000e-01,2.593994140625000000e-01
4.533286261558532715e+01,-1.405396342277526855e+00,-8.226476669311521661e+00,4.505887508392333984e+00,-3.540039062500000000e+00,-3.509521484375000000e-01,2.517700195312500000e-01
4.534491705894470215e+01,-1.400607943534850852e+00,-8.226476669311521661e+00,4.520252704620361328e+00,-3.540039062500000000e+00,-3.890991210937500000e-01,2.365112304687500000e-01
4.535913419723510742e+01,-1.407790541648864746e+00,-8.257601737976074219e+00,4.374206542968750000e+00,-3.440856933593750000e+00,-3.890991210937500000e-01,2.517700195312500000e-01
4.537149477005004883e+01,-1.388636946678161621e+00,-8.288725852966308594e+00,4.505887508392333984e+00,-3.051757812500000000e+00,-3.890991210937500000e-01,2.593994140625000000e-01
4.538627004623413086e+01,-1.403002142906188965e+00,-8.288725852966308594e+00,4.441244125366210938e+00,-3.051757812500000000e+00,-2.746582031250000000e-01,2.593994140625000000e-01
4.540148258209228516e+01,-1.388636946678161621e+00,-8.169015884399414062e+00,4.465186119079589844e+00,-3.356933593750000000e+00,-2.746582031250000000e-01,8.392333984375000000e-02
4.541342616081237793e+01,-1.403002142906188965e+00,-8.169015884399414062e+00,4.441244125366210938e+00,-3.379821777343750000e+00,-2.822875976562500000e-01,8.392333984375000000e-02
4.542887377738952637e+01,-1.367089152336120605e+00,-8.164227485656736505e+00,4.465186119079589844e+00,-3.677368164062500000e+00,-2.822875976562500000e-01,1.678466796875000000e-01
4.544105815887451172e+01,-1.367089152336120605e+00,-8.061277389526367188e+00,4.479551315307617188e+00,-3.723144531250000000e+00,-1.754760742187500000e-01,1.678466796875000000e-01
4.545587992668151855e+01,-1.367089152336120605e+00,-8.013393402099611151e+00,4.498704910278320312e+00,-3.723144531250000000e+00,-1.754760742187500000e-01,-6.103515625000000000e-02
4.546810412406921387e+01,-1.367089152336120605e+00,-8.013393402099611151e+00,4.498704910278320312e+00,-3.723144531250000000e+00,-2.670288085937500000e-01,-6.103515625000000000e-02
4.548227715492248535e+01,-1.292868852615356445e+00,-8.190564155578611505e+00,4.357447147369384766e+00,-3.448486328125000000e+00,-4.730224609375000000e-01,-7.629394531250000000e-03
4.549445557594299316e+01,-1.292868852615356445e+00,-8.202534675598144531e+00,4.357447147369384766e+00,-3.448486328125000000e+00,-2.670288085937500000e-01,1.373291015625000000e-01
4.550904822349548340e+01,-1.386242747306823508e+00,-8.190564155578611505e+00,4.390965938568115234e+00,-3.601074218750000000e+00,-2.899169921875000000e-01,-7.629394531250000000e-03
4.552444219589233398e+01,-1.517923831939697266e+00,-8.161833763122558594e+00,4.455609321594238281e+00,-3.936767578125000000e+00,-2.899169921875000000e-01,-3.814697265625000000e-02
4.553642082214355469e+01,-1.474828243255615234e+00,-8.161833763122558594e+00,4.455609321594238281e+00,-3.936767578125000000e+00,-1.136779785156250000e+00,-3.967285156250000000e-01
4.555162382125854492e+01,-1.474828243255615234e+00,-8.190564155578611505e+00,4.419696331024169922e+00,-3.463745117187500000e+00,-1.136779785156250000e+00,-3.814697265625000000e-02
4.556337594985961914e+01,-1.388636946678161621e+00,-8.283937454223632812e+00,4.419696331024169922e+00,-3.082275390625000000e+00,-2.136230468750000000e-01,3.051757812500000000e-01
4.557828855514526367e+01,-1.388636946678161621e+00,-8.288725852966308594e+00,4.419696331024169922e+00,-3.387451171875000000e+00,-2.136230468750000000e-01,3.051757812500000000e-01
4.559404373168945312e+01,-1.388636946678161621e+00,-8.288725852966308594e+00,4.364629745483397549e+00,-3.387451171875000000e+00,-4.577636718750000000e-01,3.051757812500000000e-01
4.560583305358886719e+01,-1.335964560508728027e+00,-8.336609840393066406e+00,4.343081951141356534e+00,-3.387451171875000000e+00,-1.045227050781250000e+00,-3.051757812500000000e-02
4.562109756469726562e+01,-1.233013868331909180e+00,-8.379705429077146661e+00,4.304774761199951172e+00,-2.799987792968750000e+00,-1.045227050781250000e+00,3.356933593750000000e-01
4.563214850425720215e+01,-1.233013868331909180e+00,-8.379705429077146661e+00,4.304774761199951172e+00,-2.143859863281250000e+00,-1.045227050781250000e+00,-1.220703125000000000e-01
4.564759659767150879e+01,-1.244984865188598633e+00,-7.800309181213378906e+00,4.513070106506347656e+00,-2.143859863281250000e+00,1.449584960937500000e-01,4.119873046875000000e-01
4.565918850898742676e+01,-1.278503656387329102e+00,-7.800309181213378906e+00,4.513070106506347656e+00,-5.172729492187500000e+00,2.365112304687500000e-01,-9.460449218750000000e-01
4.567738223075866699e+01,-1.400607943534850852e+00,-8.142680168151855469e+00,4.383783340454102451e+00,-5.172729492187500000e+00,4.577636718750000000e-01,-5.340576171875000000e-01
4.568974924087524414e+01,-1.410184741020202637e+00,-8.291120529174804688e+00,4.213794708251953125e+00,-4.379272460937500000e+00,4.577636718750000000e-01,-5.340576171875000000e-01
4.570216536521911621e+01,-1.400607943534850852e+00,-8.291120529174804688e+00,4.383783340454102451e+00,-4.379272460937500000e+00,3.738403320312500000e-01,-5.340576171875000000e-01
4.571903872489929199e+01,-1.304839849472045898e+00,-8.224082946777343750e+00,4.963180065155028409e+00,-4.409790039062500000e+00,3.738403320312500000e-01,-4.425048828125000000e-01
4.572948932647705078e+01,-1.304839849472045898e+00,-8.200140953063964844e+00,5.018246650695800781e+00,-9.216308593750000000e+00,3.738403320312500000e-01,1.075744628906250000e+00
4.574341583251953125e+01,-9.840168952941895641e-01,-8.224082946777343750e+00,5.018246650695800781e+00,-9.216308593750000000e+00,1.983642578125000000e+00,1.083374023437500000e+00
4.575791072845458984e+01,-1.745373010635375977e+00,-8.343792915344236505e+00,4.709394454956054688e+00,-8.224487304687500000e+00,8.773803710937500000e-01,1.083374023437500000e+00
4.577028656005859375e+01,-1.479616641998291016e+00,-8.343792915344236505e+00,4.359841346740723544e+00,-7.133483886718750000e+00,8.773803710937500000e-01,1.083374023437500000e+00
4.578610563278198242e+01,-1.709460020065307617e+00,-8.224082946777343750e+00,4.709394454956054688e+00,-7.133483886718750000e+00,2.517700195312500000e-01,1.152038574218750000e+00
4.579999399185180664e+01,-1.479616641998291016e+00,-8.204929351806638849e+00,4.359841346740723544e+00,-7.598876953125000000e+00,-2.746582031250000000e-01,3.433227539062500000e-01
4.581252527236938477e+01,-1.508347034454345703e+00,-8.147468566894531250e+00,4.460397720336914062e+00,-8.453369140625000000e+00,-2.746582031250000000e-01,6.561279296875000000e-01
4.582475733757019043e+01,-1.508347034454345703e+00,-7.996633529663085938e+00,4.460397720336914062e+00,-1.029205322265625000e+01,5.798339843750000000e-01,-7.095336914062500000e-01
4.584191584587097168e+01,-1.508347034454345703e+00,-7.603984355926513672e+00,4.498704910278320312e+00,-1.419067382812500000e+01,1.907348632812500000e+00,-1.625061035156250000e+00
4.585441207885742188e+01,-1.321599364280700906e+00,-7.603984355926513672e+00,4.544194698333740234e+00,-1.705169677734375000e+01,4.516601562500000000e+00,-4.737854003906250000e+00
4.586703872680664062e+01,-1.321599364280700906e+00,-7.963114738464355469e+00,4.546588897705078125e+00,-2.295684814453125000e+01,6.484985351562500000e+00,-4.913330078125000000e+00
4.588391160964965820e+01,-1.398213744163513184e+00,-8.135497093200683594e+00,4.544194698333740234e+00,-2.353668212890625000e+01,7.202148437500000000e+00,-5.706787109375000000e+00
4.589536356925964355e+01,-1.398213744163513184e+00,-8.714894294738769531e+00,4.082113742828368252e+00,-2.353668212890625000e+01,9.109497070312500000e+00,-6.423950195312500000e+00
4.590884947776794434e+01,-1.158793568611145020e+00,-8.829815864562988281e+00,4.082113742828368252e+00,-2.133941650390625000e+01,9.109497070312500000e+00,-6.423950195312500000e+00
4.592052483558654785e+01,-1.158793568611145020e+00,-8.829815864562988281e+00,4.082113742828368252e+00,-2.022552490234375000e+01,8.209228515625000000e+00,-5.020141601562500000e+00
4.593520474433898926e+01,-1.235408067703247070e+00,-8.717288017272950995e+00,4.079719543457031250e+00,-1.755523681640625000e+01,6.065368652343750000e+00,-2.990722656250000000e+00
4.594752550125122070e+01,-1.247379064559936301e+00,-8.552088737487792969e+00,4.079719543457031250e+00,-1.719665527343750000e+01,5.447387695312500000e+00,-2.059936523437500000e+00
4.596215200424194336e+01,-1.419761538505554199e+00,-8.360551834106445312e+00,4.209006309509276456e+00,-1.719665527343750000e+01,4.852294921875000000e+00,-2.059936523437500000e+00
4.597794222831726074e+01,-1.419761538505554199e+00,-7.939172744750977451e+00,4.218583106994628906e+00,-1.876068115234375000e+01,4.852294921875000000e+00,-1.914978027343750000e+00
4.598930811882019043e+01,-1.206677675247192383e+00,-7.910442352294922763e+00,4.314351558685303623e+00,-2.012634277343750000e+01,5.500793457031250000e+00,-3.044128417968750000e+00
4.600463318824768066e+01,-1.206677675247192383e+00,-7.910442352294922763e+00,4.314351558685303623e+00,-2.610778808593750000e+01,6.919860839843750000e+00,-3.776550292968750000e+00
4.601705813407897949e+01,-1.256955862045288086e+00,-8.339004516601562500e+00,4.158728122711181641e+00,-2.910614013671875000e+01,7.057189941406250000e+00,-3.776550292968750000e+00
4.603193879127502441e+01,-1.331176161766052246e+00,-8.487444877624513495e+00,3.816357374191283736e+00,-3.063201904296875000e+01,9.117126464843750000e+00,-3.776550292968750000e+00
4.604296517372131348e+01,-1.680729508399963379e+00,-8.609549522399902344e+00,3.502717018127441406e+00,-3.063201904296875000e+01,9.117126464843750000e+00,-2.944946289062500000e+00
4.605912518501281738e+01,-1.680729508399963379e+00,-9.184157371520996094e+00,3.318363428115844727e+00,-2.537536621093750000e+01,9.109497070312500000e+00,-5.538940429687500000e+00
4.607311606407165527e+01,-1.661575913429260476e+00,-9.184157371520996094e+00,3.318363428115844727e+00,-2.291107177734375000e+01,9.109497070312500000e+00,-4.798889160156250000e+00
4.608562350273132324e+01,-1.297657251358032227e+00,-9.162610054016113281e+00,3.485957622528076172e+00,-2.136230468750000000e+01,9.109497070312500000e+00,-4.798889160156250000e+00
4.610079741477966309e+01,-1.297657251358032227e+00,-8.688557624816894531e+00,3.830722570419311968e+00,-2.136230468750000000e+01,9.254455566406250000e+00,-1.121520996093750000e+00
4.611309504508972168e+01,-1.335964560508728027e+00,-8.176198959350585938e+00,3.830722570419311968e+00,-2.708435058593750000e+01,9.254455566406250000e+00,-7.629394531250000000e-03
4.612817311286926270e+01,-1.335964560508728027e+00,-8.097189903259277344e+00,3.830722570419311968e+00,-3.125762939453125000e+01,9.254455566406250000e+00,3.356933593750000000e-01
4.613931012153625488e+01,-1.335964560508728027e+00,-8.097189903259277344e+00,3.785232782363892046e+00,-3.305816650390625000e+01,8.636474609375000000e+00,2.441406250000000000e+00
4.615508484840393066e+01,-1.168370366096496582e+00,-8.386888504028320312e+00,3.787626981735229492e+00,-3.673553466796875000e+01,8.438110351562500000e+00,3.463745117187500000e+00
4.616646623611450195e+01,-1.338358759880065918e+00,-8.686163902282714844e+00,3.785232782363892046e+00,-3.701019287109375000e+01,3.120422363281250000e+00,1.058197021484375000e+01
4.618130397796630859e+01,-1.338358759880065918e+00,-9.047688484191896308e+00,3.380612850189208984e+00,-3.873443603515625000e+01,3.120422363281250000e+00,1.667022705078125000e+01
4.619328856468200684e+01,-1.929726481437683105e+00,-9.172186851501463067e+00,3.236960649490356445e+00,-3.893280029296875000e+01,5.302429199218750000e+00,1.667022705078125000e+01
4.620910024642944336e+01,-1.929726481437683105e+00,-9.246406555175779474e+00,2.750937700271606445e+00,-3.893280029296875000e+01,5.302429199218750000e+00,8.010864257812500000e+00
4.622349214553833008e+01,-1.872265696525573508e+00,-9.516951560974119317e+00,2.205059766769409180e+00,-2.845001220703125000e+01,2.914428710937500000e+00,5.126953125000000000e+00
4.623656821250915527e+01,-1.312022566795349121e+00,-9.516951560974119317e+00,2.205059766769409180e+00,-1.659393310546875000e+01,7.553100585937500000e-01,3.112792968750000000e+00
4.625094819068908691e+01,-1.312022566795349121e+00,-9.263166427612304688e+00,2.662352323532104492e+00,-1.659393310546875000e+01,7.553100585937500000e-01,5.126953125000000000e+00
4.626501297950744629e+01,-1.486799240112304910e+00,-9.232041358947753906e+00,3.040636062622070312e+00,-1.727294921875000000e+01,2.479553222656250000e+00,6.072998046875000000e+00
4.627782320976257324e+01,-1.551442623138427512e+00,-9.232041358947753906e+00,3.040636062622070312e+00,-1.843261718750000000e+01,3.578186035156250000e+00,6.072998046875000000e+00
4.628919959068298340e+01,-1.635239720344543679e+00,-8.753201484680175781e+00,3.021482467651366743e+00,-1.935577392578125000e+01,3.578186035156250000e+00,3.204345703125000000e+00
4.630698871612548828e+01,-1.635239720344543679e+00,-9.021351814270019531e+00,2.559401512145996094e+00,-2.064514160156250000e+01,4.142761230468750000e+00,3.204345703125000000e+00
4.631946301460266113e+01,-1.551442623138427512e+00,-8.889670372009277344e+00,2.494758129119873047e+00,-2.064514160156250000e+01,3.105163574218750000e+00,4.478454589843750000e+00
4.633202314376831055e+01,-1.551442623138427512e+00,-9.021351814270019531e+00,2.494758129119873047e+00,-1.731872558593750000e+01,-3.128051757812500000e-01,6.652832031250000000e+00
4.634900403022766113e+01,-1.632845520973205566e+00,-8.889670372009277344e+00,2.504334926605224609e+00,-1.731872558593750000e+01,-3.128051757812500000e-01,8.827209472656250000e+00
4.636036181449890137e+01,-1.685518026351928711e+00,-9.212887763977050781e+00,2.707842111587524414e+00,-1.910400390625000000e+01,2.433776855468750000e+00,8.827209472656250000e+00
4.637352347373962402e+01,-1.757344007492065430e+00,-8.508993148803710938e+00,2.707842111587524414e+00,-1.947021484375000000e+01,2.433776855468750000e+00,5.462646484375000000e+00
4.638792729377746582e+01,-1.786074399948119895e+00,-9.356539726257324219e+00,2.583343505859375000e+00,-1.910400390625000000e+01,-3.356933593750000000e-01,4.928588867187500000e+00
4.640019917488098145e+01,-1.833958506584167703e+00,-1.001494598388672053e+01,1.589749932289123535e+00,-1.750183105468750000e+01,-3.356933593750000000e-01,3.456115722656250000e+00
4.641247916221618652e+01,-1.833958506584167703e+00,-1.001494598388672053e+01,1.589749932289123535e+00,1.611557006835937500e+02,-9.002685546875000000e-01,3.456115722656250000e+00
4.642992138862609863e+01,1.362300753593444824e+00,-1.258871269226074219e+01,5.485116004943847656e+00,1.611557006835937500e+02,-4.577636718750000000e-02,1.177978515625000000e+01
4.644209694862365723e+01,1.362300753593444824e+00,-9.018958091735839844e+00,1.035492229461669922e+01,8.381652832031250000e+01,4.255676269531250000e+01,1.177978515625000000e+01
4.645438528060913086e+01,1.362300753593444824e+00,-1.258871269226074219e+01,5.485116004943847656e+00,7.624053955078125000e+01,4.255676269531250000e+01,1.930999755859375000e+01
4.647205042839050293e+01,-7.398083209991455078e+00,-1.683123779296875000e+01,1.035492229461669922e+01,7.624053955078125000e+01,-8.212280273437500000e+01,1.930999755859375000e+01
4.648314023017883301e+01,-1.287362194061279297e+01,-1.683123779296875000e+01,1.429098987579345525e+01,7.624053955078125000e+01,-8.212280273437500000e+01,1.930999755859375000e+01
4.649641013145446777e+01,-1.287362194061279297e+01,-1.225831222534179510e+01,1.429098987579345525e+01,2.333068847656250000e+01,-9.764099121093750000e+01,1.502609252929687500e+02
4.650887370109558105e+01,1.103726983070373535e+00,-1.189199924468993963e+01,5.542576789855957031e+00,4.621124267578125000e+01,4.927062988281250000e+01,-1.279449462890625000e+02
4.652401280403137207e+01,8.588001251220701349e+00,-6.289567947387695312e+00,7.685387134552001953e-01,2.333068847656250000e+01,-2.175140380859375000e+01,6.909179687500000000e+01
4.653514242172241211e+01,1.103726983070373535e+00,-5.729324340820312500e+00,3.569754600524902344e+00,1.538848876953125000e+01,2.339935302734375000e+01,4.524230957031250000e+00
4.655080175399780273e+01,-1.077390789985656738e+00,-5.738901615142822266e+00,3.203441858291626421e+00,-4.241943359375000000e+00,-1.152801513671875000e+01,3.247070312500000000e+01
4.656586980819702148e+01,-5.446808815002441406e+00,-5.738901615142822266e+00,3.203441858291626421e+00,-8.285522460937500000e+00,5.035400390625000000e-01,4.524230957031250000e+00
4.657721710205078125e+01,-5.446808815002441406e+00,-7.843404769897460938e+00,3.203441858291626421e+00,-2.227783203125000000e+01,5.035400390625000000e-01,-8.857727050781250000e+00
4.659248423576354980e+01,-3.069366455078125000e+00,-9.071630477905273438e+00,3.004723072052001953e+00,-2.227783203125000000e+01,5.035400390625000000e-01,-8.857727050781250000e+00
4.660443043708801270e+01,1.237802267074584961e+00,-1.142273616790771484e+01,2.061407566070556641e+00,-2.288818359375000000e+00,-2.265930175781250000e+00,-3.913879394531250000e+00
4.661959576606750488e+01,1.237802267074584961e+00,-1.142273616790771484e+01,2.061407566070556641e+00,4.394531250000000000e+00,-2.265930175781250000e+00,8.125305175781250000e+00
4.663099479675292969e+01,-2.798821687698364258e+00,-7.256825447082518643e+00,5.688622951507567471e+00,4.394531250000000000e+00,-2.265930175781250000e+00,8.125305175781250000e+00
4.664725279808044434e+01,-2.798821687698364258e+00,-6.995857238769531250e+00,5.688622951507567471e+00,-2.670288085937500000e+00,-2.647399902343750000e+00,6.011962890625000000e+00
4.666121649742126465e+01,-1.788468599319458008e+00,-6.995857238769531250e+00,4.077325344085693359e+00,-2.670288085937500000e+00,-2.647399902343750000e+00,-3.868103027343750000e+00
4.667357873916625977e+01,4.285621047019959051e-01,-7.309497833251952237e+00,4.077325344085693359e+00,-2.700805664062500000e+00,9.002685546875000000e-01,-3.868103027343750000e+00
4.668839669227600098e+01,4.285621047019959051e-01,-7.309497833251952237e+00,4.647145271301269531e+00,-2.784729003906250000e+00,1.472473144531250000e+00,5.157470703125000000e+00
4.669995903968811035e+01,-2.281674146652221680e+00,-7.309497833251952237e+00,4.853046894073486328e+00,-9.239196777343750000e+00,1.937866210937500000e+00,6.546020507812500000e+00
4.671608448028564453e+01,-4.027047157287598544e+00,-8.080430984497070312e+00,4.853046894073486328e+00,-9.239196777343750000e+00,1.472473144531250000e+00,6.546020507812500000e+00
4.672993421554565430e+01,-4.027047157287598544e+00,-9.562441825866699219e+00,3.019088268280029297e+00,-7.217407226562500000e+00,-3.143310546875000000e+00,-4.257202148437500000e+00
4.674225854873657227e+01,-1.771709203720092773e+00,-9.562441825866699219e+00,3.019088268280029297e+00,-2.395629882812500000e+00,-4.020690917968750000e+00,-8.354187011718750000e+00
4.675797915458679199e+01,-3.902548849582672119e-01,-8.894458770751953125e+00,3.529053211212158203e+00,-2.395629882812500000e+00,-4.020690917968750000e+00,-8.354187011718750000e+00
4.676915025711059570e+01,-3.902548849582672119e-01,-7.496245384216308594e+00,5.137956619262695312e+00,-4.463195800781250000e+00,-1.350402832031250000e+00,3.448486328125000000e+00
4.678414821624755859e+01,-1.223437070846557617e+00,-7.496245384216308594e+00,5.137956619262695312e+00,-1.062774658203125000e+01,-1.335144042968750000e+00,6.195068359375000000e+00
4.679921364784240723e+01,-2.126051187515259233e+00,-9.382876396179199219e+00,2.604891300201416016e+00,-1.062774658203125000e+01,-4.806518554687500000e-01,6.195068359375000000e+00
4.681128406524658203e+01,-2.126051187515259233e+00,-9.382876396179199219e+00,2.604891300201416016e+00,1.304626464843750000e+00,-1.335144042968750000e+00,-4.417419433593750000e+00
4.682679319381713867e+01,-1.376665949821472168e+00,-8.532935142517089844e+00,3.998316764831542969e+00,1.304626464843750000e+00,-1.129150390625000000e+00,-4.417419433593750000e+00
4.683813190460205078e+01,-6.129156351089477539e-01,-8.532935142517089844e+00,3.998316764831542969e+00,-2.372741699218750000e+00,-1.129150390625000000e+00,-1.945495605468750000e+00
4.685416841506958008e+01,-6.129156351089477539e-01,-9.167398452758787286e+00,3.859452962875366211e+00,-7.087707519531250000e+00,-3.738403320312500000e-01,5.126953125000000000e+00
4.686896300315856934e+01,-1.673546910285949707e+00,-9.167398452758787286e+00,3.823539972305298296e+00,-7.087707519531250000e+00,1.083374023437500000e+00,5.126953125000000000e+00
4.688014578819274902e+01,-1.934514999389648438e+00,-9.030928611755372870e+00,3.823539972305298296e+00,4.287719726562500000e+00,1.083374023437500000e+00,-1.853942871093750000e+00
4.689786314964294434e+01,-1.934514999389648438e+00,-7.934384346008300781e+00,3.916913986206055132e+00,4.287719726562500000e+00,-6.103515625000000000e-02,-5.844116210937500000e+00
4.690990900993347168e+01,-1.173158809542655945e-01,-7.896077156066894531e+00,4.180275917053223544e+00,1.052856445312500000e+00,-6.103515625000000000e-02,-5.844116210937500000e+00
4.692221546173095703e+01,-1.173158809542655945e-01,-7.474697589874267578e+00,4.637568473815917969e+00,-5.203247070312500000e+00,2.281188964843750000e+00,-5.340576171875000000e-02
4.693693852424621582e+01,-6.200982332229614258e-01,-7.474697589874267578e+00,4.637568473815917969e+00,-5.271911621093750000e+00,2.845764160156250000e+00,7.369995117187500000e+00
4.694946002960205078e+01,-2.590526103973388672e+00,-8.339004516601562500e+00,4.098873138427733487e+00,-5.271911621093750000e+00,2.281188964843750000e+00,7.369995117187500000e+00
4.696517896652221680e+01,-2.892195701599121094e+00,-8.882488250732421875e+00,4.031835556030272549e+00,-9.994506835937500000e-01,5.798339843750000000e-01,4.035949707031250000e+00
4.697891020774841309e+01,-2.892195701599121094e+00,-8.882488250732421875e+00,4.031835556030272549e+00,-9.994506835937500000e-01,-6.332397460937500000e-01,-5.683898925781250000e+00
4.699119758605957031e+01,-2.145204782485961914e+00,-8.365340232849121094e+00,4.187458515167236328e+00,-1.541137695312500000e+00,-1.693725585937500000e+00,-5.683898925781250000e+00
4.700378704071044922e+01,-1.259350061416625977e+00,-8.264783859252929688e+00,4.187458515167236328e+00,-2.685546875000000000e+00,-1.663208007812500000e+00,-4.882812500000000000e-01
4.702094030380249023e+01,-1.259350061416625977e+00,-8.104372978210450995e+00,3.995922565460205078e+00,-2.830505371093750000e+00,-2.372741699218750000e+00,2.136230468750000000e+00
4.703194642066955566e+01,-1.948880195617676003e+00,-8.104372978210450995e+00,3.701435804367065430e+00,-4.859924316406250000e+00,-1.663208007812500000e+00,2.136230468750000000e+00
4.704517245292663574e+01,-1.948880195617676003e+00,-8.449137687683105469e+00,3.701435804367065430e+00,-6.767272949218750000e+00,-2.372741699218750000e+00,-1.235961914062500000e+00
4.706298208236694336e+01,-1.544260025024414062e+00,-8.916007041931152344e+00,3.701435804367065430e+00,-5.386352539062500000e+00,-1.159667968750000000e+00,-1.235961914062500000e+00
4.707421898841857910e+01,-1.137245774269104004e+00,-8.916007041931152344e+00,3.964797973632812944e+00,-5.386352539062500000e+00,-1.159667968750000000e+00,-9.460449218750000000e-01
4.708746528625488281e+01,-1.113303780555725098e+00,-8.882488250732421875e+00,4.443638324737548828e+00,-4.798889160156250000e+00,-4.959106445312500000e-01,1.892089843750000000e+00
4.710188055038452148e+01,-1.137245774269104004e+00,-8.882488250732421875e+00,4.443638324737548828e+00,-4.119873046875000000e+00,8.010864257812500000e-01,1.892089843750000000e+00
4.711457252502441406e+01,-1.345541357994079590e+00,-9.356539726257324219e+00,4.000710964202881748e+00,-4.119873046875000000e+00,8.010864257812500000e-01,-9.307861328125000000e-01
4.712666559219360352e+01,-1.345541357994079590e+00,-9.356539726257324219e+00,3.308786630630493164e+00,8.087158203125000000e-01,-8.392333984375000000e-02,-1.022338867187500000e+00
4.714193344116210938e+01,-9.457096457481384277e-01,-8.712499618530271661e+00,3.308786630630493164e+00,8.087158203125000000e-01,-1.113891601562500000e+00,-9.307861328125000000e-01
4.715639400482177734e+01,-8.140285611152648926e-01,-7.213729381561278409e+00,4.515464305877685547e+00,-2.838134765625000000e+00,-6.637573242187500000e-01,1.754760742187500000e-01
4.716861176490783691e+01,-8.140285611152648926e-01,-7.213729381561278409e+00,4.515464305877685547e+00,-7.797241210937500000e+00,-6.637573242187500000e-01,7.476806640625000000e-01
4.718342137336730957e+01,-1.288080453872680886e+00,-7.924807548522949219e+00,4.048594951629638672e+00,-7.797241210937500000e+00,2.128601074218750000e+00,3.807067871093750000e+00
4.719567894935607910e+01,-1.642422318458557129e+00,-8.899247169494628906e+00,4.029441356658936435e+00,-4.020690917968750000e+00,2.128601074218750000e+00,3.807067871093750000e+00
4.721446275711059570e+01,-2.710236310958862305e+00,-8.899247169494628906e+00,4.029441356658936435e+00,-1.968383789062500000e+00,8.010864257812500000e-01,1.754760742187500000e-01
4.722528862953186035e+01,-2.710236310958862305e+00,-8.899247169494628906e+00,4.007893562316895419e+00,-1.968383789062500000e+00,1.525878906250000000e-01,-1.373291015625000000e-01
4.723754858970642090e+01,-1.810016512870788796e+00,-8.995016098022460938e+00,3.840299367904663086e+00,-4.798889160156250000e+00,-1.487731933593750000e+00,1.754760742187500000e-01
4.725317955017089844e+01,-1.690306425094604492e+00,-8.995016098022460938e+00,3.840299367904663086e+00,-4.798889160156250000e+00,-6.866455078125000000e-01,1.525878906250000000e-02
4.726400661468505859e+01,-1.690306425094604492e+00,-8.037335395812986505e+00,4.266467571258544922e+00,-2.899169921875000000e+00,-6.866455078125000000e-01,1.525878906250000000e-02
4.727920937538146973e+01,-1.580173134803771973e+00,-7.603984355926513672e+00,4.941632270812988281e+00,-2.899169921875000000e+00,-6.866455078125000000e-01,-1.342773437500000000e+00
4.729152679443359375e+01,-1.479616641998291016e+00,-7.603984355926513672e+00,4.941632270812988281e+00,-4.127502441406250000e+00,-6.027221679687500000e-01,-1.754760742187500000e+00
4.730627250671386719e+01,-1.079784989356994629e+00,-8.305485725402832031e+00,3.639186620712279829e+00,-4.127502441406250000e+00,-1.396179199218750000e+00,-1.342773437500000000e+00
4.731843662261962891e+01,-1.079784989356994629e+00,-9.083600997924804688e+00,3.529053211212158203e+00,-3.547668457031250000e+00,-8.087158203125000000e-01,2.754211425781250000e+00
4.733412814140319824e+01,-1.606509327888488770e+00,-9.083600997924804688e+00,3.529053211212158203e+00,-3.547668457031250000e+00,-1.396179199218750000e+00,2.754211425781250000e+00
4.734519410133361816e+01,-1.671152710914611816e+00,-8.537723541259767401e+00,4.472368717193604404e+00,-4.730224609375000000e+00,-8.087158203125000000e-01,1.953125000000000000e+00
4.736008071899414062e+01,-1.671152710914611816e+00,-8.537723541259767401e+00,4.472368717193604404e+00,-4.730224609375000000e+00,-1.167297363281250000e+00,-2.113342285156250000e+00
4.737236452102661133e+01,-7.374141216278076172e-01,-8.537723541259767401e+00,4.508281707763671875e+00,-4.013061523437500000e+00,-4.501342773437500000e-01,-2.113342285156250000e+00
4.738806295394897461e+01,-7.374141216278076172e-01,-8.367734909057617188e+00,4.295197963714600498e+00,-4.577636718750000000e-02,2.822875976562500000e-01,-2.670288085937500000e-01
4.740211391448974609e+01,-1.089361786842346191e+00,-8.092401504516603339e+00,4.295197963714600498e+00,-4.577636718750000000e-02,9.765625000000000000e-01,2.151489257812500000e+00
4.741418409347534180e+01,-1.479616641998291016e+00,-8.092401504516603339e+00,4.232948303222656250e+00,-4.837036132812500000e+00,9.689331054687500000e-01,2.151489257812500000e+00
4.742988705635070801e+01,-1.908178687095641868e+00,-8.829815864562988281e+00,3.220201253890991211e+00,-4.837036132812500000e+00,9.689331054687500000e-01,1.762390136718750000e+00
4.744096803665161133e+01,-1.908178687095641868e+00,-8.829815864562988281e+00,3.220201253890991211e+00,-3.814697265625000000e+00,-8.468627929687500000e-01,2.288818359375000000e-01
4.745667910575866699e+01,-1.769315004348754883e+00,-8.078036308288574219e+00,4.343081951141356534e+00,-3.097534179687500000e+00,-8.468627929687500000e-01,-1.312255859375000000e+00
4.746901082992553711e+01,-1.719036817550659180e+00,-8.078036308288574219e+00,4.503493309020996094e+00,-3.097534179687500000e+00,-5.950927734375000000e-01,-1.312255859375000000e+00
4.748344063758850098e+01,-1.719036817550659180e+00,-8.185775756835937500e+00,4.503493309020996094e+00,-7.911682128906250000e+00,-1.373291015625000000e-01,5.264282226562500000e-01
4.749598312377929688e+01,-1.719036817550659180e+00,-8.382100105285644531e+00,4.187458515167236328e+00,-7.911682128906250000e+00,-5.950927734375000000e-01,2.029418945312500000e+00
4.751104021072387695e+01,-1.939303398132323997e+00,-8.382100105285644531e+00,4.187458515167236328e+00,-4.898071289062500000e+00,4.959106445312500000e-01,5.264282226562500000e-01
4.752787351608276367e+01,-1.939303398132323997e+00,-8.104372978210450995e+00,4.769249916076660156e+00,-4.310607910156250000e+00,-8.697509765625000000e-01,-3.372192382812500000e+00
4.753896975517272949e+01,-1.766920804977416992e+00,-8.104372978210450995e+00,4.769249916076660156e+00,-4.310607910156250000e+00,-8.697509765625000000e-01,-3.372192382812500000e+00
4.755227541923522949e+01,-1.192312479019165039e+00,-8.777143478393554688e+00,4.460397720336914062e+00,-4.310607910156250000e+00,-8.697509765625000000e-01,-2.182006835937500000e+00
4.756682538986206055e+01,-1.192312479019165039e+00,-8.777143478393554688e+00,4.017470359802246094e+00,-4.142761230468750000e+00,-4.653930664062500000e-01,3.906250000000000000e+00
4.757909417152404785e+01,-1.625662922859191895e+00,-8.530540466308593750e+00,4.017470359802246094e+00,-1.838684082031250000e+00,-4.653930664062500000e-01,-2.182006835937500000e+00
4.759126424789428711e+01,-1.625662922859191895e+00,-8.061277389526367188e+00,4.498704910278320312e+00,-1.838684082031250000e+00,-1.342773437500000000e+00,-2.632141113281250000e+00
4.760902357101440430e+01,-1.345541357994079590e+00,-8.061277389526367188e+00,4.498704910278320312e+00,-7.179260253906250000e+00,-1.342773437500000000e+00,-2.632141113281250000e+00
4.762191438674926758e+01,-9.816226959228515625e-01,-8.422801017761230469e+00,4.458003520965576172e+00,-7.179260253906250000e+00,5.950927734375000000e-01,-1.640319824218750000e+00
4.763373804092407227e+01,-9.816226959228515625e-01,-8.422801017761230469e+00,4.458003520965576172e+00,-1.792907714843750000e+00,5.950927734375000000e-01,2.059936523437500000e+00
4.765085387229919434e+01,-1.424549937248229980e+00,-8.343792915344236505e+00,4.560954093933105469e+00,-1.792907714843750000e+00,1.266479492187500000e+00,2.059936523437500000e+00
4.766099786758422852e+01,-1.738190412521362305e+00,-8.343792915344236505e+00,4.560954093933105469e+00,-9.574890136718750000e+00,-1.159667968750000000e+00,9.918212890625000000e-02
4.767609047889709473e+01,-1.738190412521362305e+00,-9.311050415039062500e+00,3.701435804367065430e+00,-9.574890136718750000e+00,7.400512695312500000e-01,9.918212890625000000e-02
4.768987250328063965e+01,-1.972822189331054910e+00,-9.311050415039062500e+00,3.701435804367065430e+00,2.578735351562500000e+00,-9.155273437500000000e-01,9.918212890625000000e-02
4.770252799987792969e+01,-1.613691926002502441e+00,-8.188169479370117188e+00,4.036623954772948331e+00,2.578735351562500000e+00,-9.155273437500000000e-01,2.212524414062500000e-01
4.771486902236938477e+01,-1.525106430053710938e+00,-7.671021938323974609e+00,4.185064315795897549e+00,-4.615783691406250000e+00,-9.155273437500000000e-01,-1.640319824218750000e+00
4.773193597793579102e+01,-1.458068847656250000e+00,-7.671021938323974609e+00,4.185064315795897549e+00,-4.913330078125000000e+00,1.983642578125000000e-01,1.014709472656250000e+00
4.774421525001525879e+01,-1.525106430053710938e+00,-8.339004516601562500e+00,4.170699119567871094e+00,-4.913330078125000000e+00,3.509521484375000000e-01,7.629394531250000000e-01
4.775678324699401855e+01,-2.104503154754638672e+00,-8.339004516601562500e+00,4.170699119567871094e+00,-2.822875976562500000e+00,1.983642578125000000e-01,2.342224121093750000e+00
4.777161312103271484e+01,-2.114079952239990234e+00,-8.339004516601562500e+00,4.170699119567871094e+00,-2.708435058593750000e+00,3.509521484375000000e-01,7.629394531250000000e-01
4.778334927558898926e+01,-2.114079952239990234e+00,-8.523358345031736505e+00,3.983951568603516069e+00,-2.708435058593750000e+00,-1.983642578125000000e+00,1.777648925781250000e+00
4.779897642135620117e+01,-1.309628367424011230e+00,-8.631096839904785156e+00,3.983951568603516069e+00,-3.021240234375000000e+00,-8.850097656250000000e-01,-2.334594726562500000e+00
4.781059145927429199e+01,-1.309628367424011230e+00,-8.631096839904785156e+00,3.983951568603516069e+00,-3.021240234375000000e+00,-1.983642578125000000e+00,1.777648925781250000e+00
4.782571244239807129e+01,-1.151610970497131126e+00,-8.149862289428710938e+00,4.027047157287598544e+00,-2.662658691406250000e+00,-8.850097656250000000e-01,-2.334594726562500000e+00
4.783688187599182129e+01,-1.479616641998291016e+00,-7.754819393157958984e+00,4.249708175659180576e+00,-2.662658691406250000e+00,-1.319885253906250000e+00,-4.959106445312500000e-01
4.785250473022460938e+01,-1.149216771125793679e+00,-7.754819393157958984e+00,4.249708175659180576e+00,-4.371643066406250000e+00,-6.866455078125000000e-01,-4.959106445312500000e-01
4.786721372604370117e+01,-1.374271750450134499e+00,-8.793902397155763495e+00,3.519476413726806197e+00,-4.371643066406250000e+00,-6.866455078125000000e-01,1.327514648437500000e+00
4.787968611717224121e+01,-1.340752959251403809e+00,-8.793902397155763495e+00,3.519476413726806197e+00,-4.806518554687500000e+00,-2.746582031250000000e-01,1.579284667968750000e+00
4.789431548118591309e+01,-1.374271750450134499e+00,-8.762778282165527344e+00,4.098873138427733487e+00,-4.875183105468750000e+00,8.010864257812500000e-01,1.327514648437500000e+00
4.790683007240295410e+01,-1.589749932289123535e+00,-8.762778282165527344e+00,4.098873138427733487e+00,-5.249023437500000000e+00,-2.746582031250000000e-01,1.152038574218750000e+00
4.792187237739562988e+01,-1.589749932289123535e+00,-8.722076416015625000e+00,4.098873138427733487e+00,-5.249023437500000000e+00,8.010864257812500000e-01,-1.449584960937500000e+00
4.793320202827453613e+01,-1.467645645141601562e+00,-8.710105895996093750e+00,4.288015365600586826e+00,-5.340576171875000000e-02,-2.365112304687500000e-01,1.091003417968750000e+00
4.794875001907348633e+01,-1.335964560508728027e+00,-8.154650688171388495e+00,4.690240859985351562e+00,-5.340576171875000000e-02,6.713867187500000000e-01,1.091003417968750000e+00
4.796349191665649414e+01,-1.335964560508728027e+00,-8.154650688171388495e+00,4.690240859985351562e+00,-5.378723144531250000e+00,6.713867187500000000e-01,1.182556152343750000e+00
4.797582721710205078e+01,-1.786074399948119895e+00,-8.547300338745117188e+00,3.799597978591918945e+00,-5.378723144531250000e+00,6.713867187500000000e-01,2.182006835937500000e+00
4.799004125595092773e+01,-1.850717902183532715e+00,-8.547300338745117188e+00,3.799597978591918945e+00,-2.990722656250000000e+00,1.007080078125000000e+00,2.182006835937500000e+00
4.800248050689697266e+01,-1.968033790588379128e+00,-8.446743011474611151e+00,4.043806552886962891e+00,-2.990722656250000000e+00,-2.616882324218750000e+00,-4.730224609375000000e-01
4.801792454719543457e+01,-1.850717902183532715e+00,-8.348581314086914062e+00,4.405331134796143466e+00,-3.135681152343750000e+00,-1.510620117187500000e+00,-4.730224609375000000e-01
4.802920556068420410e+01,-1.683123707771301270e+00,-8.348581314086914062e+00,4.405331134796143466e+00,-6.546020507812500000e+00,-1.510620117187500000e+00,5.798339843750000000e-01
4.804475307464599609e+01,-1.592144131660461426e+00,-8.477868080139160156e+00,4.170699119567871094e+00,-6.546020507812500000e+00,-5.035400390625000000e-01,1.289367675781250000e+00
4.805930614471435547e+01,-1.683123707771301270e+00,-8.477868080139160156e+00,4.170699119567871094e+00,-5.805969238281250000e+00,-5.035400390625000000e-01,1.289367675781250000e+00
4.807180047035217285e+01,-1.592144131660461426e+00,-8.271966934204103339e+00,4.276044368743896484e+00,-5.493164062500000000e-01,-6.713867187500000000e-01,-9.918212890625000000e-01
4.808653354644775391e+01,-1.297657251358032227e+00,-8.271966934204103339e+00,4.276044368743896484e+00,-5.493164062500000000e-01,-6.713867187500000000e-01,-2.655029296875000000e+00
4.809872794151306152e+01,-1.084573388099670410e+00,-8.597578048706054688e+00,3.581725597381591797e+00,-4.882812500000000000e+00,-1.754760742187500000e+00,-9.918212890625000000e-01
4.811395859718322754e+01,-1.084573388099670410e+00,-8.803479194641113281e+00,3.581725597381591797e+00,-5.493164062500000000e+00,-3.890991210937500000e-01,2.960205078125000000e+00
4.812551736831665039e+01,-1.362300753593444824e+00,-8.803479194641113281e+00,4.170699119567871094e+00,-5.493164062500000000e+00,-3.890991210937500000e-01,2.960205078125000000e+00
4.814018392562866211e+01,-1.515529632568359375e+00,-8.935160636901855469e+00,4.170699119567871094e+00,-4.119873046875000000e+00,-3.890991210937500000e-01,3.890991210937500000e-01
4.815800809860229492e+01,-1.515529632568359375e+00,-8.631096839904785156e+00,4.170699119567871094e+00,-2.204895019531250000e+00,-6.408691406250000000e-01,-1.213073730468750000e+00
4.816933584213256836e+01,-1.264138460159301758e+00,-8.544905662536621094e+00,4.316745758056641513e+00,-2.204895019531250000e+00,-1.518249511718750000e+00,-1.213073730468750000e+00
4.818267321586608887e+01,-1.005564689636230469e+00,-8.341398239135742188e+00,4.443638324737548828e+00,-3.036499023437500000e+00,-6.408691406250000000e-01,7.019042968750000000e-01
4.819692111015319824e+01,-1.005564689636230469e+00,-7.943961143493652344e+00,4.443638324737548828e+00,-3.105163574218750000e+00,-1.220703125000000000e-01,1.350402832031250000e+00
4.820913243293762207e+01,-1.553836822509765625e+00,-8.341398239135742188e+00,4.115632534027100498e+00,-3.105163574218750000e+00,-1.220703125000000000e-01,1.449584960937500000e+00
4.822209668159484863e+01,-1.845929503440856934e+00,-8.954314231872558594e+00,3.758896589279174805e+00,-3.608703613281250000e+00,-1.220703125000000000e-01,1.449584960937500000e+00
4.823900747299194336e+01,-1.616086125373840332e+00,-9.141061782836914062e+00,3.758896589279174805e+00,-3.608703613281250000e+00,-1.907348632812500000e-01,1.449584960937500000e+00
4.825051808357238770e+01,-1.836352705955505149e+00,-8.954314231872558594e+00,3.919308185577392578e+00,-2.296447753906250000e+00,6.866455078125000000e-02,-1.518249511718750000e+00
4.826410007476806641e+01,-1.616086125373840332e+00,-8.322244644165039062e+00,4.412513732910156250e+00,-2.296447753906250000e+00,-1.281738281250000000e+00,7.934570312500000000e-01
4.827788114547729492e+01,-1.580173134803771973e+00,-7.958326339721679688e+00,4.565742492675781250e+00,-3.974914550781250000e+00,6.866455078125000000e-02,-1.754760742187500000e+00
4.829046988487243652e+01,-1.407790541648864746e+00,-7.958326339721679688e+00,4.565742492675781250e+00,-3.974914550781250000e+00,2.059936523437500000e-01,7.934570312500000000e-01
4.830580592155456543e+01,-1.261744260787964089e+00,-8.276755332946777344e+00,4.204217910766602451e+00,-4.493713378906250000e+00,2.059936523437500000e-01,2.006530761718750000e+00
4.831993842124938965e+01,-1.407790541648864746e+00,-8.334216117858888495e+00,4.204217910766602451e+00,-4.959106445312500000e+00,2.288818359375000000e-02,2.006530761718750000e+00
4.833222198486328125e+01,-1.752555608749389648e+00,-8.676587104797361505e+00,4.797980308532714844e+00,-8.079528808593750000e+00,2.288818359375000000e-02,1.770019531250000000e+00
4.834424281120300293e+01,-2.260126352310180664e+00,-9.054870605468750000e+00,4.797980308532714844e+00,-8.079528808593750000e+00,-6.103515625000000000e-01,-7.019042968750000000e-01
4.836191821098327637e+01,-1.752555608749389648e+00,-9.054870605468750000e+00,3.706224203109741211e+00,1.495361328125000000e+00,-6.103515625000000000e-01,-8.163452148437500000e-01
4.837395763397216797e+01,-1.194706678390502930e+00,-8.961496353149414062e+00,3.706224203109741211e+00,1.495361328125000000e+00,-1.213073730468750000e+00,-1.747131347656250000e+00
4.838604259490966797e+01,-1.134851574897765891e+00,-8.039729118347167969e+00,4.273650169372558594e+00,-4.646301269531250000e+00,-1.586914062500000000e+00,-8.163452148437500000e-01
4.840405297279357910e+01,-1.134851574897765891e+00,-8.039729118347167969e+00,4.273650169372558594e+00,-5.287170410156250000e+00,-1.213073730468750000e+00,-4.119873046875000000e-01
4.841520047187805176e+01,-1.431732535362243652e+00,-8.394070625305175781e+00,3.933673381805419922e+00,-5.287170410156250000e+00,-1.907348632812500000e-01,3.089904785156250000e+00
4.842881536483764648e+01,-1.601720929145813210e+00,-8.678980827331542969e+00,3.933673381805419922e+00,-5.035400390625000000e+00,3.128051757812500000e-01,-4.119873046875000000e-01
4.844088792800903320e+01,-1.752555608749389648e+00,-8.707711219787597656e+00,4.149151325225830078e+00,-5.035400390625000000e+00,-1.907348632812500000e-01,-2.593994140625000000e-01
4.845553207397460938e+01,-1.601720929145813210e+00,-8.678980827331542969e+00,4.290409564971923828e+00,-5.035400390625000000e+00,3.128051757812500000e-01,-9.155273437500000000e-01
4.847025299072265625e+01,-1.537077426910400391e+00,-8.616731643676757812e+00,4.290409564971923828e+00,-3.463745117187500000e+00,-7.629394531250000000e-02,-2.593994140625000000e-01
4.848248529434204102e+01,-1.537077426910400391e+00,-8.585607528686521661e+00,4.213794708251953125e+00,-3.463745117187500000e+00,-7.629394531250000000e-02,1.007080078125000000e+00
4.849794411659240723e+01,-1.601720929145813210e+00,-8.585607528686521661e+00,4.213794708251953125e+00,-2.975463867187500000e+00,-7.629394531250000000e-02,1.007080078125000000e+00
4.851006937026977539e+01,-1.683123707771301270e+00,-8.185775756835937500e+00,4.000710964202881748e+00,-2.975463867187500000e+00,-4.730224609375000000e-01,-1.823425292968750000e+00
4.852449536323547363e+01,-1.683123707771301270e+00,-8.135497093200683594e+00,4.192246913909912109e+00,-2.067565917968750000e+00,-4.730224609375000000e-01,-1.823425292968750000e+00
4.853638958930969238e+01,-1.199495077133178711e+00,-8.051700592041017401e+00,4.192246913909912109e+00,-2.067565917968750000e+00,-5.493164062500000000e-01,-9.307861328125000000e-01
4.855200314521789551e+01,-1.199495077133178711e+00,-8.051700592041017401e+00,4.345476150512694424e+00,-7.041931152343750000e+00,-5.493164062500000000e-01,1.159667968750000000e+00
4.856318354606628418e+01,-1.721431016921996848e+00,-8.827421188354492188e+00,4.345476150512694424e+00,-7.041931152343750000e+00,8.392333984375000000e-02,1.159667968750000000e+00
4.857850861549377441e+01,-2.164358377456665039e+00,-8.827421188354492188e+00,4.345476150512694424e+00,-5.439758300781250000e+00,8.392333984375000000e-02,-4.577636718750000000e-02
4.859064769744873047e+01,-2.164358377456665039e+00,-8.738836288452146661e+00,4.232948303222656250e+00,1.747131347656250000e+00,6.103515625000000000e-02,-1.281738281250000000e+00
4.860623168945312500e+01,-1.632845520973205566e+00,-8.441954612731933594e+00,3.938461780548096147e+00,1.747131347656250000e+00,-1.731872558593750000e+00,-1.281738281250000000e+00
4.861831641197204590e+01,-7.589619159698486328e-01,-8.441954612731933594e+00,3.938461780548096147e+00,-4.638671875000000000e+00,-1.731872558593750000e+00,-9.536743164062500000e-01
4.863260316848754883e+01,-7.589619159698486328e-01,-8.441954612731933594e+00,4.156333923339843750e+00,-4.638671875000000000e+00,-1.373291015625000000e-01,1.625061035156250000e+00
4.864732313156127930e+01,-1.513135433197021706e+00,-8.549694061279298651e+00,4.156333923339843750e+00,-4.287719726562500000e+00,-1.373291015625000000e-01,1.655578613281250000e+00
4.865959572792053223e+01,-1.915361285209655984e+00,-8.549694061279298651e+00,3.914519786834716797e+00,-2.273559570312500000e+00,-1.541137695312500000e+00,1.625061035156250000e+00
4.867493247985839844e+01,-1.915361285209655984e+00,-8.549694061279298651e+00,3.914519786834716797e+00,-2.273559570312500000e+00,-1.541137695312500000e+00,-2.319335937500000000e+00
4.868619561195373535e+01,-1.225831270217895508e+00,-8.506598472595214844e+00,4.201823711395263672e+00,-3.250122070312500000e+00,-8.468627929687500000e-01,-2.319335937500000000e+00
4.870160865783691406e+01,-1.024718284606933594e+00,-8.506598472595214844e+00,4.321534156799316406e+00,-4.455566406250000000e+00,-4.272460937500000000e-01,0.000000000000000000e+00
4.871702146530151367e+01,-1.024718284606933594e+00,-8.681375503540039062e+00,4.201823711395263672e+00,-3.402709960937500000e+00,-4.272460937500000000e-01,2.685546875000000000e+00
4.872880411148071289e+01,-1.982398986816406472e+00,-8.743624687194824219e+00,4.204217910766602451e+00,-3.402709960937500000e+00,-6.561279296875000000e-01,2.685546875000000000e+00
4.874580812454223633e+01,-1.982398986816406472e+00,-8.681375503540039062e+00,4.149151325225830078e+00,-3.082275390625000000e+00,-6.561279296875000000e-01,-8.392333984375000000e-02
4.875727343559265137e+01,-1.663970112800597922e+00,-8.358158111572267401e+00,4.204217910766602451e+00,-2.616882324218750000e+00,-9.765625000000000000e-01,-9.918212890625000000e-01
4.877088618278503418e+01,-9.145850539207458496e-01,-8.090007781982423651e+00,4.390965938568115234e+00,-2.616882324218750000e+00,-1.449584960937500000e-01,-9.918212890625000000e-01
4.878496527671813965e+01,-9.145850539207458496e-01,-8.090007781982423651e+00,4.390965938568115234e+00,-4.173278808593750000e+00,1.068115234375000000e+00,2.143859863281250000e+00
4.879705119132995605e+01,-1.750161409378051758e+00,-8.398859024047853339e+00,4.041412353515625000e+00,-5.523681640625000000e+00,1.068115234375000000e+00,2.784729003906250000e+00
4.880910396575927734e+01,-2.056619167327880859e+00,-8.664615631103517401e+00,4.036623954772948331e+00,-5.523681640625000000e+00,-6.103515625000000000e-02,2.784729003906250000e+00
4.882682800292968750e+01,-2.056619167327880859e+00,-8.736441612243652344e+00,4.041412353515625000e+00,-3.814697265625000000e+00,-6.484985351562500000e-01,-2.174377441406250000e+00
4.883933663368225098e+01,-1.561019539833068848e+00,-8.664615631103517401e+00,4.201823711395263672e+00,-3.410339355468750000e+00,-2.975463867187500000e-01,-2.174377441406250000e+00
4.885182261466979980e+01,-1.149216771125793679e+00,-8.678980827331542969e+00,4.311957359313964844e+00,-3.410339355468750000e+00,-1.434326171875000000e+00,-1.548767089843750000e+00
4.886889743804931641e+01,-1.149216771125793679e+00,-8.678980827331542969e+00,4.311957359313964844e+00,-3.410339355468750000e+00,-2.975463867187500000e-01,1.144409179687500000e+00
4.887998175621032715e+01,-1.673546910285949707e+00,-8.678980827331542969e+00,4.079719543457031250e+00,-2.899169921875000000e+00,-7.247924804687500000e-01,1.144409179687500000e+00
4.889357542991638184e+01,-1.673546910285949707e+00,-8.449137687683105469e+00,4.058171749114990234e+00,-1.914978027343750000e+00,-7.247924804687500000e-01,3.509521484375000000e-01
4.890780806541442871e+01,-1.510741233825683594e+00,-8.415618896484375000e+00,4.041412353515625000e+00,-1.914978027343750000e+00,-1.014709472656250000e+00,-1.045227050781250000e+00
4.892037320137023926e+01,-1.070208191871642844e+00,-8.264783859252929688e+00,4.058171749114990234e+00,-3.570556640625000000e+00,-1.014709472656250000e+00,-1.045227050781250000e+00
4.893325376510620117e+01,-1.070208191871642844e+00,-8.264783859252929688e+00,4.041412353515625000e+00,-4.508972167968750000e+00,-5.264282226562500000e-01,6.561279296875000000e-01
4.894985055923461914e+01,-1.403002142906188965e+00,-8.578424453735353339e+00,4.094084739685058594e+00,-4.508972167968750000e+00,-4.730224609375000000e-01,9.613037109375000000e-01
4.896272516250610352e+01,-1.872265696525573508e+00,-8.578424453735353339e+00,4.098873138427733487e+00,-3.936767578125000000e+00,-1.983642578125000000e-01,9.613037109375000000e-01
4.897420549392700195e+01,-1.872265696525573508e+00,-8.611943244934082031e+00,4.098873138427733487e+00,-3.143310546875000000e+00,-1.983642578125000000e-01,-1.953125000000000000e+00
4.898950552940368652e+01,-1.510741233825683594e+00,-8.578424453735353339e+00,4.098873138427733487e+00,-3.143310546875000000e+00,-5.493164062500000000e-01,-1.953125000000000000e+00
4.900175714492797852e+01,-1.125274777412414551e+00,-8.578424453735353339e+00,4.146757125854491299e+00,-4.188537597656250000e+00,-5.493164062500000000e-01,-1.525878906250000000e-02
4.901606202125549316e+01,-1.125274777412414551e+00,-8.578424453735353339e+00,4.290409564971923828e+00,-4.188537597656250000e+00,6.561279296875000000e-01,1.541137695312500000e+00
4.902868843078613281e+01,-1.831564307212829590e+00,-8.619126319885253906e+00,4.290409564971923828e+00,-3.593444824218750000e+00,6.561279296875000000e-01,1.541137695312500000e+00
4.904322767257690430e+01,-1.972822189331054910e+00,-8.619126319885253906e+00,4.039018154144287109e+00,-2.670288085937500000e+00,-5.645751953125000000e-01,6.484985351562500000e-01
4.905564117431640625e+01,-1.972822189331054910e+00,-8.611943244934082031e+00,4.039018154144287109e+00,-2.670288085937500000e+00,-7.019042968750000000e-01,-1.251220703125000000e+00
4.907003331184387207e+01,-1.323993563652038574e+00,-8.451531410217285156e+00,4.149151325225830078e+00,-3.326416015625000000e+00,-7.019042968750000000e-01,-1.251220703125000000e+00
4.908220720291137695e+01,-1.323993563652038574e+00,-8.367734909057617188e+00,4.323928356170653409e+00,-3.982543945312500000e+00,-5.340576171875000000e-02,-2.746582031250000000e-01
4.909772896766662598e+01,-1.467645645141601562e+00,-8.367734909057617188e+00,4.323928356170653409e+00,-3.982543945312500000e+00,-5.340576171875000000e-02,1.220703125000000000e+00
4.911206197738647461e+01,-1.759738206863403098e+00,-8.518569946289062500e+00,4.007893562316895419e+00,-3.784179687500000000e+00,-7.629394531250000000e-02,1.220703125000000000e+00
4.912431883811950684e+01,-1.759738206863403098e+00,-8.518569946289062500e+00,4.007893562316895419e+00,-3.479003906250000000e+00,-8.392333984375000000e-01,-3.204345703125000000e-01
4.914017605781555176e+01,-1.551442623138427512e+00,-8.473079681396482599e+00,4.168304920196533203e+00,-3.379821777343750000e+00,-8.392333984375000000e-01,-7.324218750000000000e-01
4.915146613121032715e+01,-1.194706678390502930e+00,-8.425195693969728339e+00,4.173093318939208984e+00,-3.379821777343750000e+00,-4.806518554687500000e-01,-7.324218750000000000e-01
4.916638326644897461e+01,-1.194706678390502930e+00,-8.425195693969728339e+00,4.173093318939208984e+00,-3.601074218750000000e+00,9.918212890625000000e-02,1.220703125000000000e+00
4.917883229255676270e+01,-1.438915252685546875e+00,-8.542511940002441406e+00,3.998316764831542969e+00,-3.662109375000000000e+00,9.918212890625000000e-02,1.220703125000000000e+00
4.919402503967285156e+01,-1.747767210006714089e+00,-8.542511940002441406e+00,3.998316764831542969e+00,-3.601074218750000000e+00,-1.373291015625000000e-01,1.014709472656250000e+00
4.920526313781738281e+01,-1.747767210006714089e+00,-8.446743011474611151e+00,4.209006309509276456e+00,-2.983093261718750000e+00,-3.509521484375000000e-01,-6.179809570312500000e-01
4.922089576721191406e+01,-1.333570361137389915e+00,-8.418012619018554688e+00,4.209006309509276456e+00,-2.983093261718750000e+00,-6.561279296875000000e-01,-6.179809570312500000e-01
4.923507547378540039e+01,-1.240196466445922852e+00,-8.372523307800292969e+00,4.209006309509276456e+00,-3.578186035156250000e+00,-3.509521484375000000e-01,-3.814697265625000000e-02
4.924753046035766602e+01,-1.240196466445922852e+00,-8.372523307800292969e+00,4.158728122711181641e+00,-4.493713378906250000e+00,-2.365112304687500000e-01,3.509521484375000000e-01
4.926285314559936523e+01,-1.762132406234741211e+00,-8.372523307800292969e+00,4.158728122711181641e+00,-4.493713378906250000e+00,-2.365112304687500000e-01,7.934570312500000000e-01
4.927430915832519531e+01,-1.762132406234741211e+00,-8.104372978210450995e+00,4.268861770629883701e+00,-4.127502441406250000e+00,1.220703125000000000e-01,3.509521484375000000e-01
4.929003000259399414e+01,-1.443703651428222878e+00,-8.104372978210450995e+00,4.311957359313964844e+00,-4.127502441406250000e+00,7.629394531250000000e-03,9.918212890625000000e-02
4.930193519592285156e+01,-1.379060149192810059e+00,-8.540117263793945312e+00,4.311957359313964844e+00,-3.829956054687500000e+00,7.629394531250000000e-03,9.918212890625000000e-02
4.931664586067199707e+01,-1.379060149192810059e+00,-8.726864814758299005e+00,3.902548789978027344e+00,-3.829956054687500000e+00,-1.373291015625000000e-01,1.182556152343750000e+00
4.932884573936462402e+01,-1.965639591217041016e+00,-8.798690795898437500e+00,3.871424198150634322e+00,-2.891540527343750000e+00,-4.348754882812500000e-01,1.182556152343750000e+00
4.934392356872558594e+01,-1.965639591217041016e+00,-8.798690795898437500e+00,3.871424198150634322e+00,-2.754211425781250000e+00,-1.106262207031250000e+00,3.051757812500000000e-01
4.935857605934143066e+01,-1.553836822509765625e+00,-8.327033042907714844e+00,4.036623954772948331e+00,-2.754211425781250000e+00,-1.106262207031250000e+00,-9.613037109375000000e-01
4.937291073799133301e+01,-1.051054477691650391e+00,-8.180987358093263495e+00,4.170699119567871094e+00,-3.746032714843750000e+00,-9.765625000000000000e-01,-9.613037109375000000e-01
4.938618707656860352e+01,-1.051054477691650391e+00,-8.180987358093263495e+00,4.170699119567871094e+00,-3.776550292968750000e+00,-2.288818359375000000e-02,5.874633789062500000e-01
4.939764475822448730e+01,-1.362300753593444824e+00,-8.391676902770996094e+00,4.168304920196533203e+00,-4.356384277343750000e+00,9.155273437500000000e-02,2.632141113281250000e+00
4.941499853134155273e+01,-1.877054095268249290e+00,-8.523358345031736505e+00,4.139574527740479404e+00,-4.356384277343750000e+00,-2.288818359375000000e-02,2.632141113281250000e+00
4.942603111267089844e+01,-1.877054095268249290e+00,-8.750806808471679688e+00,3.981557369232177734e+00,-3.921508789062500000e+00,-7.629394531250000000e-02,-3.585815429687500000e-01
4.943911385536193848e+01,-1.668758511543274148e+00,-8.750806808471679688e+00,3.976768970489501953e+00,-2.120971679687500000e+00,-5.874633789062500000e-01,-1.213073730468750000e+00
4.945386457443237305e+01,-1.367089152336120605e+00,-8.473079681396482599e+00,3.981557369232177734e+00,-2.120971679687500000e+00,-5.874633789062500000e-01,-1.213073730468750000e+00
4.946614313125610352e+01,-1.367089152336120605e+00,-8.133103370666503906e+00,4.211400508880615234e+00,-3.524780273437500000e+00,4.425048828125000000e-01,6.256103515625000000e-01
4.948138499259948730e+01,-1.407790541648864746e+00,-8.133103370666503906e+00,4.211400508880615234e+00,-4.463195800781250000e+00,4.425048828125000000e-01,1.876831054687500000e+00
4.949587154388427734e+01,-1.572990536689758301e+00,-8.281543731689451349e+00,3.993528366088866743e+00,-4.463195800781250000e+00,2.593994140625000000e-01,1.876831054687500000e+00
4.950783228874206543e+01,-1.731007814407348633e+00,-8.494627952575683594e+00,3.993528366088866743e+00,-3.395080566406250000e+00,-2.746582031250000000e-01,-2.059936523437500000e-01
4.952018809318542480e+01,-1.731007814407348633e+00,-8.599972724914549005e+00,4.247313976287841797e+00,-3.395080566406250000e+00,-2.746582031250000000e-01,-3.204345703125000000e-01
4.953796958923339844e+01,-1.498770236968993919e+00,-8.532935142517089844e+00,4.247313976287841797e+00,-3.585815429687500000e+00,-2.746582031250000000e-01,-2.059936523437500000e-01
4.954929113388061523e+01,-1.498770236968993919e+00,-8.532935142517089844e+00,4.228159904479980469e+00,-3.585815429687500000e+00,-4.425048828125000000e-01,3.204345703125000000e-01
4.956303167343139648e+01,-1.537077426910400391e+00,-8.413224220275878906e+00,4.163516521453856534e+00,-3.356933593750000000e+00,-3.814697265625000000e-02,3.204345703125000000e-01
4.958004593849182129e+01,-1.537077426910400391e+00,-8.377311706542968750e+00,4.106055736541748047e+00,-3.356933593750000000e+00,-1.831054687500000000e-01,-2.212524414062500000e-01
4.959117102622985840e+01,-1.527500629425048828e+00,-8.331821441650388849e+00,4.163516521453856534e+00,-3.608703613281250000e+00,-1.831054687500000000e-01,-2.212524414062500000e-01
4.960484957695007324e+01,-1.264138460159301758e+00,-8.331821441650388849e+00,4.065354347229003906e+00,-4.035949707031250000e+00,-1.831054687500000000e-01,-5.340576171875000000e-02
4.961708164215087891e+01,-1.264138460159301758e+00,-8.564059257507324219e+00,4.065354347229003906e+00,-4.035949707031250000e+00,-2.212524414062500000e-01,8.010864257812500000e-01
