# elapsed time, f1_acc_x, f1_acc_y, f1_acc_z, f1_gyro_x, f1_gyro_y, f1_gyro_z
5.385557699203491211e+01,4.819528102874755859e+00,-8.997409820556640625e+00,-1.891419291496276855e-01,-3.494262695312500000e+00,-9.918212890625000000e-02,3.509521484375000000e-01
5.386668467521667480e+01,4.742913722991943359e+00,-9.028534889221193183e+00,-1.292868852615356445e-01,-3.456115722656250000e+00,-9.918212890625000000e-02,3.509521484375000000e-01
5.387986397743225098e+01,4.742913722991943359e+00,-9.033323287963867188e+00,-1.292868852615356445e-01,-3.608703613281250000e+00,-9.918212890625000000e-02,5.416870117187500000e-01
5.389454436302185059e+01,4.800374507904052734e+00,-9.038111686706542969e+00,-2.154781520366668701e-01,-3.608703613281250000e+00,-4.653930664062500000e-01,6.179809570312500000e-01
5.390717625617980957e+01,4.800374507904052734e+00,-9.054870605468750000e+00,-2.298433631658554077e-01,-3.608703613281250000e+00,-7.629394531250000000e-02,5.416870117187500000e-01
5.391908431053161621e+01,4.788403511047363281e+00,-9.054870605468750000e+00,-2.298433631658554077e-01,-3.372192382812500000e+00,-7.629394531250000000e-02,5.035400390625000000e-01
5.393652153015136719e+01,4.762067317962647373e+00,-9.035717010498046875e+00,-1.532289087772369385e-01,-3.372192382812500000e+00,-7.629394531250000000e-02,5.035400390625000000e-01
5.394745326042175293e+01,4.788403511047363281e+00,-8.990227699279785156e+00,-1.532289087772369385e-01,-3.479003906250000000e+00,-1.831054687500000000e-01,6.179809570312500000e-01
5.396185231208801270e+01,4.778826713562011719e+00,-8.990227699279785156e+00,-1.747767180204391479e-01,-3.540039062500000000e+00,-1.831054687500000000e-01,6.179809570312500000e-01
5.397847437858581543e+01,4.778826713562011719e+00,-9.028534889221193183e+00,-1.747767180204391479e-01,-3.479003906250000000e+00,-1.831054687500000000e-01,6.179809570312500000e-01
5.398914551734924316e+01,4.778826713562011719e+00,-9.035717010498046875e+00,-1.628057062625885010e-01,-3.578186035156250000e+00,3.814697265625000000e-02,6.179809570312500000e-01
5.400356578826904297e+01,4.814739704132080078e+00,-9.028534889221193183e+00,-9.816227108240127563e-02,-3.578186035156250000e+00,-5.798339843750000000e-01,7.476806640625000000e-01
5.401758337020874023e+01,4.814739704132080078e+00,-9.018958091735839844e+00,-1.053448766469955444e-01,-3.578186035156250000e+00,-6.179809570312500000e-01,7.476806640625000000e-01
5.402969241142272949e+01,4.812345504760742188e+00,-9.018958091735839844e+00,-1.053448766469955444e-01,-3.196716308593750000e+00,-6.179809570312500000e-01,7.476806640625000000e-01
5.404236507415771484e+01,4.786009311676025391e+00,-9.018958091735839844e+00,-1.244984865188598494e-01,-3.196716308593750000e+00,-5.340576171875000000e-01,5.264282226562500000e-01
5.405968165397644043e+01,4.790797710418701172e+00,-9.035717010498046875e+00,-1.795651316642761230e-01,-3.410339355468750000e+00,-8.392333984375000000e-02,5.111694335937500000e-01
5.407087922096252441e+01,4.790797710418701172e+00,-9.088389396667480469e+00,-1.795651316642761230e-01,-3.639221191406250000e+00,-8.392333984375000000e-02,5.111694335937500000e-01
5.408423137664794922e+01,4.800374507904052734e+00,-9.088389396667480469e+00,-1.987187415361404419e-01,-3.501892089843750000e+00,-8.392333984375000000e-02,5.111694335937500000e-01
5.409969258308410645e+01,4.867412090301513672e+00,-8.997409820556640625e+00,-1.987187415361404419e-01,-3.501892089843750000e+00,3.814697265625000000e-02,3.509521484375000000e-01
5.411158704757690430e+01,4.800374507904052734e+00,-8.997409820556640625e+00,-2.059013396501541138e-01,-3.501892089843750000e+00,-4.043579101562500000e-01,5.035400390625000000e-01
5.412671232223510742e+01,4.819528102874755859e+00,-9.038111686706542969e+00,-1.963245421648025235e-01,-3.387451171875000000e+00,-4.043579101562500000e-01,5.035400390625000000e-01
5.413859152793884277e+01,4.817133903503417969e+00,-9.066842079162597656e+00,-2.059013396501541138e-01,-3.509521484375000000e+00,-4.043579101562500000e-01,5.035400390625000000e-01
5.415364670753479004e+01,4.819528102874755859e+00,-9.069235801696775567e+00,-1.556231081485748569e-01,-3.387451171875000000e+00,-8.697509765625000000e-01,7.324218750000000000e-01
5.416553306579589844e+01,4.817133903503417969e+00,-9.069235801696775567e+00,-1.556231081485748569e-01,-3.379821777343750000e+00,-3.128051757812500000e-01,7.476806640625000000e-01
5.418037843704223633e+01,4.826710700988769531e+00,-8.949525833129882812e+00,-1.556231081485748569e-01,-3.379821777343750000e+00,-3.128051757812500000e-01,7.476806640625000000e-01
5.419215869903564453e+01,4.845864295959472656e+00,-8.944737434387207031e+00,-2.274491637945174893e-01,-3.639221191406250000e+00,-3.128051757812500000e-01,9.918212890625000000e-01
5.420733475685119629e+01,4.845864295959472656e+00,-8.935160636901855469e+00,-2.274491637945174893e-01,-3.639221191406250000e+00,2.136230468750000000e-01,7.476806640625000000e-01
5.421924233436584473e+01,4.845864295959472656e+00,-8.935160636901855469e+00,-2.035071402788162509e-01,-3.684997558593750000e+00,1.831054687500000000e-01,7.476806640625000000e-01
5.423432278633117676e+01,4.838681697845458984e+00,-8.985439300537109375e+00,-2.035071402788162509e-01,-3.410339355468750000e+00,1.831054687500000000e-01,7.476806640625000000e-01
5.424869656562805176e+01,4.836287498474121094e+00,-8.985439300537109375e+00,-2.322375625371932983e-01,-3.410339355468750000e+00,1.831054687500000000e-01,4.882812500000000000e-01
5.426097273826599121e+01,4.836287498474121094e+00,-8.985439300537109375e+00,-2.322375625371932983e-01,-3.410339355468750000e+00,-3.814697265625000000e-01,6.027221679687500000e-01
5.427657794952392578e+01,4.836287498474121094e+00,-8.918400764465332031e+00,-2.394201606512069425e-01,-3.402709960937500000e+00,-3.814697265625000000e-01,6.027221679687500000e-01
5.428869795799255371e+01,4.802768707275391513e+00,-8.956707954406738281e+00,-2.322375625371932983e-01,-3.646850585937500000e+00,-3.814697265625000000e-01,6.027221679687500000e-01
5.430268526077270508e+01,4.762067317962647373e+00,-8.956707954406738281e+00,-2.106897532939910889e-01,-3.646850585937500000e+00,-7.171630859375000000e-01,1.091003417968750000e+00
5.431492400169372559e+01,4.764461517333983487e+00,-8.956707954406738281e+00,-2.106897532939910889e-01,-3.646850585937500000e+00,-7.629394531250000000e-03,7.247924804687500000e-01
5.433039975166320801e+01,4.764461517333983487e+00,-9.014169692993164062e+00,-2.106897532939910889e-01,-3.799438476562500000e+00,-7.629394531250000000e-03,7.247924804687500000e-01
5.434261274337768555e+01,4.788403511047363281e+00,-8.954314231872558594e+00,-2.729389965534210205e-01,-3.578186035156250000e+00,-7.629394531250000000e-03,7.247924804687500000e-01
5.435694336891174316e+01,4.817133903503417969e+00,-9.038111686706542969e+00,-2.130839526653289517e-01,-3.761291503906250000e+00,2.288818359375000000e-02,2.517700195312500000e-01
5.437240648269653320e+01,4.817133903503417969e+00,-9.040505409240724433e+00,-2.130839526653289517e-01,-3.509521484375000000e+00,-6.408691406250000000e-01,8.163452148437500000e-01
5.438469576835632324e+01,4.841075897216796875e+00,-9.040505409240724433e+00,-1.939303278923034668e-01,-3.761291503906250000e+00,-7.324218750000000000e-01,8.163452148437500000e-01
5.439895772933959961e+01,4.841075897216796875e+00,-9.040505409240724433e+00,-1.939303278923034668e-01,-3.883361816406250000e+00,-7.324218750000000000e-01,8.163452148437500000e-01
5.441091632843017578e+01,4.841075897216796875e+00,-8.877699851989746094e+00,-3.040636181831359863e-01,-3.883361816406250000e+00,-7.324218750000000000e-01,4.577636718750000000e-01
5.442604684829711914e+01,4.774038314819335938e+00,-9.047688484191896308e+00,-3.040636181831359863e-01,-3.425598144531250000e+00,-5.187988281250000000e-01,2.059936523437500000e-01
5.444144868850708008e+01,4.774038314819335938e+00,-8.877699851989746094e+00,-2.154781520366668701e-01,-3.425598144531250000e+00,-5.187988281250000000e-01,2.059936523437500000e-01
5.445339679718017578e+01,4.809951305389403409e+00,-8.978256225585937500e+00,-5.985504016280173561e-02,-4.020690917968750000e+00,-5.187988281250000000e-01,3.204345703125000000e-01
5.446766114234924316e+01,4.809951305389403409e+00,-8.978256225585937500e+00,-2.154781520366668701e-01,-4.020690917968750000e+00,-8.621215820312500000e-01,9.918212890625000000e-01
5.448253965377807617e+01,4.814739704132080078e+00,-9.002198219299316406e+00,-1.580173075199127197e-01,-4.081726074218750000e+00,-8.621215820312500000e-01,9.918212890625000000e-01
5.449488925933837891e+01,4.707000255584716797e+00,-9.002198219299316406e+00,-1.580173075199127197e-01,-3.211975097656250000e+00,-8.621215820312500000e-01,9.918212890625000000e-01
5.450695204734802246e+01,4.714182853698730469e+00,-9.028534889221193183e+00,-1.436520963907241821e-01,-3.578186035156250000e+00,-1.548767089843750000e+00,1.281738281250000000e+00
5.452453827857971191e+01,4.671087265014648438e+00,-9.002198219299316406e+00,-1.436520963907241821e-01,-3.501892089843750000e+00,-1.548767089843750000e+00,1.281738281250000000e+00
5.453556990623474121e+01,4.714182853698730469e+00,-9.062053680419921875e+00,-1.292868852615356445e-01,-3.578186035156250000e+00,-8.850097656250000000e-01,4.577636718750000000e-01
5.454863548278808594e+01,4.740519523620605469e+00,-8.882488250732421875e+00,-2.059013396501541138e-01,-3.501892089843750000e+00,-8.850097656250000000e-01,4.577636718750000000e-01
5.456352949142456055e+01,4.740519523620605469e+00,-8.949525833129882812e+00,-8.379705995321273804e-02,-4.951477050781250000e+00,-1.228332519531250000e+00,-6.103515625000000000e-01
5.457683610916137695e+01,4.740519523620605469e+00,-8.949525833129882812e+00,-3.687070608139038086e-01,-3.631591796875000000e+00,-1.228332519531250000e+00,-2.365112304687500000e-01
5.459109807014465332e+01,4.812345504760742188e+00,-8.966284751892089844e+00,-1.867477297782897949e-01,-3.959655761718750000e+00,-9.536743164062500000e-01,-2.365112304687500000e-01
5.460551667213439941e+01,4.982333660125731534e+00,-9.074024200439453125e+00,-2.609679698944091797e-01,-3.631591796875000000e+00,-9.536743164062500000e-01,1.525878906250000000e+00
5.461865019798278809e+01,4.982333660125731534e+00,-9.074024200439453125e+00,-2.609679698944091797e-01,-3.761291503906250000e+00,-9.536743164062500000e-01,1.617431640625000000e+00
5.463063788414001465e+01,4.817133903503417969e+00,-9.074024200439453125e+00,-2.609679698944091797e-01,-3.761291503906250000e+00,-6.027221679687500000e-01,1.617431640625000000e+00
5.464745473861694336e+01,4.766855716705322266e+00,-8.968679428100585938e+00,-3.519476354122161865e-01,-3.761291503906250000e+00,-6.027221679687500000e-01,1.617431640625000000e+00
5.465816378593444824e+01,4.695029258728027344e+00,-8.925583839416503906e+00,-3.519476354122161865e-01,-4.058837890625000000e+00,-6.027221679687500000e-01,1.571655273437500000e+00
5.467207622528076172e+01,4.695029258728027344e+00,-8.925583839416503906e+00,-3.519476354122161865e-01,-4.058837890625000000e+00,-1.289367675781250000e+00,1.739501953125000000e+00
5.468958401679992676e+01,4.754884719848632812e+00,-9.107542991638183594e+00,-4.812345206737517755e-01,-5.027770996093750000e+00,-1.289367675781250000e+00,1.739501953125000000e+00
5.470038199424743652e+01,4.754884719848632812e+00,-9.107542991638183594e+00,-2.585737705230712891e-01,-5.027770996093750000e+00,-1.289367675781250000e+00,1.739501953125000000e+00
5.471457552909851074e+01,4.754884719848632812e+00,-9.100360870361328125e+00,-3.184288144111632746e-01,-3.814697265625000000e+00,2.517700195312500000e-01,7.629394531250000000e-03
5.472666668891906738e+01,4.764461517333983487e+00,-8.918400764465332031e+00,-2.585737705230712891e-01,-3.814697265625000000e+00,2.517700195312500000e-01,7.629394531250000000e-03
5.474064230918884277e+01,4.996698856353759766e+00,-9.100360870361328125e+00,-3.184288144111632746e-01,-3.814697265625000000e+00,-1.113891601562500000e+00,8.010864257812500000e-01
5.475355482101440430e+01,4.996698856353759766e+00,-8.942342758178710938e+00,-4.381389021873474121e-01,-3.715515136718750000e+00,-1.113891601562500000e+00,1.213073730468750000e+00
5.476783585548400879e+01,4.991910457611083984e+00,-9.179368972778320312e+00,-4.381389021873474121e-01,-3.715515136718750000e+00,4.501342773437500000e-01,1.457214355468750000e+00
5.478315854072570801e+01,4.570530891418457031e+00,-8.980650901794433594e+00,-4.381389021873474121e-01,-5.638122558593750000e+00,4.501342773437500000e-01,1.838684082031250000e+00
5.479571747779846191e+01,4.570530891418457031e+00,-8.980650901794433594e+00,-4.525041282176970880e-01,-5.638122558593750000e+00,-1.907348632812500000e-01,1.838684082031250000e+00
5.481054067611694336e+01,4.570530891418457031e+00,-8.870516777038574219e+00,-4.525041282176970880e-01,-5.500793457031250000e+00,-1.907348632812500000e-01,8.087158203125000000e-01
5.482183575630187988e+01,4.654327869415283203e+00,-8.870516777038574219e+00,-1.556231081485748569e-01,-5.218505859375000000e+00,-1.907348632812500000e-01,4.653930664062500000e-01
5.483769583702087402e+01,4.728548049926757812e+00,-8.870516777038574219e+00,-1.556231081485748569e-01,-5.218505859375000000e+00,-6.027221679687500000e-01,4.653930664062500000e-01
5.484958434104919434e+01,4.728548049926757812e+00,-9.040505409240724433e+00,-1.556231081485748569e-01,-3.471374511718750000e+00,-7.781982421875000000e-01,1.663208007812500000e+00
5.486463069915771484e+01,4.606443881988525391e+00,-9.030928611755372870e+00,-6.009446382522583008e-01,-6.576538085937500000e+00,-6.027221679687500000e-01,3.288269042968750000e+00
5.487657737731933594e+01,4.606443881988525391e+00,-9.040505409240724433e+00,-1.125274747610092302e-01,-5.706787109375000000e+00,-2.571105957031250000e+00,1.770019531250000000e+00
5.489088463783264160e+01,4.644751071929931641e+00,-9.076418876647949219e+00,-5.003881454467773438e-01,-5.706787109375000000e+00,-7.476806640625000000e-01,1.800537109375000000e+00
5.490261292457580566e+01,4.750096321105957031e+00,-9.076418876647949219e+00,-4.572925269603729248e-01,-5.233764648437500000e+00,-7.476806640625000000e-01,1.770019531250000000e+00
5.491831541061401367e+01,4.939238071441650391e+00,-9.076418876647949219e+00,-4.572925269603729248e-01,-4.928588867187500000e+00,-7.476806640625000000e-01,1.800537109375000000e+00
5.493324375152587891e+01,4.939238071441650391e+00,-8.817844390869140625e+00,-4.572925269603729248e-01,-4.928588867187500000e+00,-1.747131347656250000e+00,2.593994140625000000e+00
5.494530415534973145e+01,4.881777286529541016e+00,-9.303867340087890625e+00,-2.394201606512069702e-02,-6.355285644531250000e+00,-2.395629882812500000e+00,3.295898437500000000e+00
5.496035742759704590e+01,4.400542736053466797e+00,-8.817844390869140625e+00,-6.296750307083129883e-01,-6.759643554687500000e+00,-1.747131347656250000e+00,3.295898437500000000e+00
5.497245073318481445e+01,4.881777286529541016e+00,-9.023746490478515625e+00,-2.394201606512069702e-02,-6.896972656250000000e+00,1.144409179687500000e-01,2.639770507812500000e+00
5.498667597770690918e+01,4.388571739196776456e+00,-8.729259490966798651e+00,-4.118026793003082275e-01,-6.896972656250000000e+00,1.144409179687500000e-01,2.639770507812500000e+00
5.499867796897888184e+01,4.707000255584716797e+00,-8.978256225585937500e+00,-1.939303278923034668e-01,-7.369995117187500000e+00,1.144409179687500000e-01,2.639770507812500000e+00
5.501497077941894531e+01,4.489128112792968750e+00,-8.978256225585937500e+00,-4.118026793003082275e-01,-7.369995117187500000e+00,-3.448486328125000000e+00,1.091003417968750000e+00
5.502915334701538086e+01,4.623203277587891513e+00,-8.978256225585937500e+00,-3.902548849582672119e-01,-6.996154785156250000e+00,1.274108886718750000e+00,-5.722045898437500000e-01
5.504170775413513184e+01,4.623203277587891513e+00,-9.215282440185546875e+00,-5.506663918495178223e-01,-4.890441894531250000e+00,1.831054687500000000e+00,1.091003417968750000e+00
5.505601096153259277e+01,4.716577053070068359e+00,-8.932765960693359375e+00,-5.434837937355041504e-01,-4.890441894531250000e+00,1.831054687500000000e+00,1.182556152343750000e+00
5.506802105903625488e+01,4.716577053070068359e+00,-8.975861549377441406e+00,-5.434837937355041504e-01,-9.246826171875000000e+00,-4.882812500000000000e+00,1.525878906250000000e+00
5.508313179016113281e+01,4.697423458099365234e+00,-8.975861549377441406e+00,-5.434837937355041504e-01,-9.246826171875000000e+00,-4.882812500000000000e+00,1.525878906250000000e+00
5.509880065917968750e+01,4.697423458099365234e+00,-9.313444137573242188e+00,-1.412578940391540305e+00,-5.561828613281250000e+00,2.777099609375000000e+00,1.525878906250000000e+00
5.511255025863647461e+01,5.935225963592528409e+00,-9.313444137573242188e+00,-1.412578940391540305e+00,-5.561828613281250000e+00,2.258300781250000000e+01,-3.227233886718750000e+00
5.512567710876464844e+01,5.935225963592528409e+00,-7.498639583587646484e+00,-2.626439332962036133e+00,6.530761718750000000e+00,2.258300781250000000e+01,3.372192382812500000e+00
5.513668966293334961e+01,6.579266071319580078e+00,-7.498639583587646484e+00,-1.426944136619568093e+00,-1.816558837890625000e+01,-1.985931396484375000e+01,-2.181243896484375000e+01
5.515455961227416992e+01,2.736572504043579102e+00,-7.498639583587646484e+00,-1.426944136619568093e+00,2.296447753906250000e+01,-1.985931396484375000e+01,-1.193237304687500000e+01
5.516553473472595215e+01,6.579266071319580078e+00,-1.004846477508544922e+01,2.106897532939910889e-01,2.972412109375000000e+01,-2.952575683593750000e+00,-1.809692382812500000e+01
5.517870473861694336e+01,7.596801757812500000e+00,-9.284713745117187500e+00,2.106897532939910889e-01,2.972412109375000000e+01,-2.952575683593750000e+00,-1.193237304687500000e+01
5.519649982452392578e+01,7.596801757812500000e+00,-9.284713745117187500e+00,9.097966551780699296e-02,1.348114013671875000e+01,-6.988525390625000000e+00,9.994506835937500000e-01
5.520803165435791016e+01,3.744531393051147905e+00,-9.255983352661132812e+00,9.097966551780699296e-02,6.530761718750000000e+00,-6.988525390625000000e+00,9.994506835937500000e-01
5.522084522247314453e+01,3.718195199966431108e+00,-9.255983352661132812e+00,9.097966551780699296e-02,1.348114013671875000e+01,6.370544433593750000e+00,-4.959106445312500000e+00
5.523553705215454102e+01,3.744531393051147905e+00,-9.255983352661132812e+00,1.601720929145813210e+00,2.294921875000000000e+01,1.306152343750000000e+01,-1.757812500000000000e+01
5.524799847602844238e+01,1.402762794494628729e+01,-9.586383819580078125e+00,3.526659011840820312e+00,2.294921875000000000e+01,1.306152343750000000e+01,-1.757812500000000000e+01
5.526008772850036621e+01,1.402762794494628729e+01,-5.832275390625000000e+00,3.526659011840820312e+00,7.164764404296875000e+01,-1.538085937500000000e+01,3.722381591796875000e+01
5.527752614021301270e+01,1.728613615036010742e+00,-1.258152961730957031e+01,-5.525817394256591797e+00,-8.337402343750000000e+01,-2.985382080078125000e+01,3.722381591796875000e+01
5.528882932662963867e+01,1.728613615036010742e+00,-7.151480197906494141e+00,-5.525817394256591797e+00,7.118988037109375000e+01,-1.538085937500000000e+01,2.719879150390625000e+01
5.530196046829223633e+01,2.209848165512084961e+00,-9.018958091735839844e+00,-4.707000255584716797e+00,-3.076171875000000000e+01,-5.828857421875000000e+00,-5.683898925781250000e+00
5.531952071189880371e+01,2.901772499084472656e+00,-7.807491779327392578e+00,4.896142482757568359e+00,-2.241516113281250000e+01,-5.828857421875000000e+00,-1.005554199218750000e+01
5.533036398887634277e+01,6.081272125244141513e+00,-9.018958091735839844e+00,-4.707000255584716797e+00,-2.241516113281250000e+01,-5.828857421875000000e+00,-1.005554199218750000e+01
5.534405636787414551e+01,6.332663536071777344e+00,-8.391676902770996094e+00,4.788403213024139404e-02,-1.419067382812500000e+00,-6.980895996093750000e+00,-8.880615234375000000e+00
5.535622072219848633e+01,6.332663536071777344e+00,-8.437166213989257812e+00,4.788403213024139404e-02,1.617431640625000000e+00,5.630493164062500000e+00,2.845764160156250000e+00
5.537116074562072754e+01,4.326322555541991299e+00,-8.437166213989257812e+00,4.788403213024139404e-02,-1.419067382812500000e+00,-6.980895996093750000e+00,1.050567626953125000e+01
5.538304328918457031e+01,4.326322555541991299e+00,-9.004592895507812500e+00,-3.591302409768105247e-02,-2.548217773437500000e+00,1.525878906250000000e-01,2.845764160156250000e+00
5.539807891845703125e+01,4.802768707275391513e+00,-9.011775016784667969e+00,-3.591302409768105247e-02,-2.708435058593750000e+00,1.525878906250000000e-01,-1.647949218750000000e+00
5.541370820999145508e+01,4.939238071441650391e+00,-9.011775016784667969e+00,-3.591302409768105247e-02,-3.791809082031250000e+00,1.525878906250000000e-01,-1.647949218750000000e+00
5.542918133735656738e+01,5.073313236236572266e+00,-9.011775016784667969e+00,-4.932055473327637274e-01,-3.791809082031250000e+00,-1.968383789062500000e+00,5.187988281250000000e-01
5.544012808799743652e+01,5.073313236236572266e+00,-8.875305175781250000e+00,-4.932055473327637274e-01,-4.096984863281250000e+00,-1.968383789062500000e+00,1.770019531250000000e+00
5.545226764678955078e+01,4.465186119079589844e+00,-8.726864814758299005e+00,4.165910780429840088e-01,-4.096984863281250000e+00,2.441406250000000000e-01,2.388000488281250000e+00
5.546766018867492676e+01,4.395754337310791016e+00,-8.726864814758299005e+00,4.165910780429840088e-01,-4.096984863281250000e+00,2.441406250000000000e-01,1.770019531250000000e+00
5.547907114028930664e+01,4.395754337310791016e+00,-9.624691009521484375e+00,-6.703764796257019043e-01,-4.676818847656250000e+00,-1.762390136718750000e+00,-2.426147460937500000e+00
5.549464583396911621e+01,4.939238071441650391e+00,-9.624691009521484375e+00,-6.703764796257019043e-01,-4.653930664062500000e-01,-1.762390136718750000e+00,-3.105163574218750000e+00
5.550660705566406250e+01,4.965574264526367188e+00,-9.263166427612304688e+00,5.937620401382446289e-01,-1.029968261718750000e+00,-3.364562988281250000e+00,-2.426147460937500000e+00
5.552137804031372070e+01,4.965574264526367188e+00,-8.209717750549316406e+00,8.140285611152648926e-01,-1.029968261718750000e+00,-1.251220703125000000e+00,5.798339843750000000e+00
5.553620052337646484e+01,4.845864295959472656e+00,-8.209717750549316406e+00,8.140285611152648926e-01,-1.029968261718750000e+00,-1.251220703125000000e+00,1.006317138671875000e+01
5.554846048355102539e+01,4.091690540313721591e+00,-9.945513725280761719e+00,-1.599326729774475098e+00,-7.217407226562500000e+00,8.850097656250000000e-01,1.006317138671875000e+01
5.556306815147399902e+01,3.763684988021850586e+00,-9.945513725280761719e+00,-1.599326729774475098e+00,-3.334045410156250000e+00,8.850097656250000000e-01,-2.799987792968750000e+00
5.557504773139953613e+01,4.091690540313721591e+00,-9.141061782836914062e+00,5.746084079146385193e-02,-3.334045410156250000e+00,1.373291015625000000e-01,-3.860473632812500000e+00
5.559062623977661133e+01,5.781997203826903409e+00,-9.141061782836914062e+00,5.746084079146385193e-02,-3.334045410156250000e+00,-6.866455078125000000e-02,-4.959106445312500000e+00
5.560247182846069336e+01,5.781997203826903409e+00,-9.318232536315917969e+00,-1.388636976480484009e-01,-3.608703613281250000e+00,-6.866455078125000000e-02,-3.860473632812500000e+00
5.561661410331726074e+01,5.760449409484862393e+00,-9.318232536315917969e+00,-1.388636976480484009e-01,-3.608703613281250000e+00,-6.866455078125000000e-02,2.929687500000000000e+00
5.563239669799804688e+01,4.479551315307617188e+00,-8.983044624328613281e+00,3.040636181831359863e-01,-3.608703613281250000e+00,0.000000000000000000e+00,2.929687500000000000e+00
5.564459490776062012e+01,4.242525577545166016e+00,-8.039729118347167969e+00,5.243301391601562500e-01,-5.180358886718750000e+00,-1.708984375000000000e+00,1.983642578125000000e-01
5.565883946418762207e+01,4.213794708251953125e+00,-8.039729118347167969e+00,5.243301391601562500e-01,-7.812500000000000000e+00,3.890991210937500000e-01,-4.432678222656250000e+00
5.567159843444824219e+01,4.213794708251953125e+00,-8.307879447937013495e+00,4.788403213024138849e-01,-7.812500000000000000e+00,-2.967834472656250000e+00,-4.432678222656250000e+00
5.568588066101074219e+01,4.951209068298339844e+00,-9.270348548889160156e+00,-3.160346150398254395e-01,-7.812500000000000000e+00,5.187988281250000000e-01,-9.643554687500000000e+00
5.569813585281372070e+01,5.284003257751464844e+00,-8.334216117858888495e+00,6.224924325942992470e-02,-6.881713867187500000e+00,-5.340576171875000000e+00,2.746582031250000000e-01
5.571311759948730469e+01,5.284003257751464844e+00,-9.222464561462402344e+00,6.224924325942992470e-02,-5.035400390625000000e+00,6.408691406250000000e+00,-6.370544433593750000e+00
5.572875189781188965e+01,5.284003257751464844e+00,-9.222464561462402344e+00,6.224924325942992470e-02,-5.035400390625000000e+00,-1.976013183593750000e+00,2.075195312500000000e+00
5.574244070053100586e+01,5.348646640777587891e+00,-9.323020935058593750e+00,-4.118026793003082275e-01,-5.035400390625000000e+00,4.806518554687500000e-01,1.274108886718750000e+00
5.575474691390991211e+01,4.958391666412353516e+00,-9.323020935058593750e+00,-4.118026793003082275e-01,-4.486083984375000000e+00,4.119873046875000000e-01,2.075195312500000000e+00
5.576788306236267090e+01,4.690240859985351562e+00,-8.877699851989746094e+00,-3.615244626998900812e-01,-4.486083984375000000e+00,4.806518554687500000e-01,3.890991210937500000e+00
5.578450918197631836e+01,4.510675907135009766e+00,-8.877699851989746094e+00,-3.615244626998900812e-01,-4.486083984375000000e+00,4.119873046875000000e-01,5.187988281250000000e+00
5.579639863967895508e+01,4.062960147857666016e+00,-9.457096099853515625e+00,-3.615244626998900812e-01,-5.149841308593750000e+00,1.670837402343750000e+00,5.187988281250000000e+00
5.580973267555236816e+01,3.914519786834716797e+00,-9.457096099853515625e+00,1.795651316642761230e-01,-5.149841308593750000e+00,-1.693725585937500000e+00,-2.586364746093750000e+00
5.582360911369323730e+01,3.914519786834716797e+00,-9.066842079162597656e+00,1.795651316642761230e-01,-3.166198730468750000e+00,-1.586914062500000000e+00,-5.798339843750000000e+00
5.583641743659973145e+01,5.652709960937500000e+00,-8.834604263305664062e+00,1.316810846328735629e-01,-3.166198730468750000e+00,-1.586914062500000000e+00,-3.509521484375000000e+00
5.584837365150451660e+01,5.913678169250487393e+00,-9.066842079162597656e+00,-4.309562966227531433e-02,-3.166198730468750000e+00,-7.934570312500000000e-01,-3.509521484375000000e+00
5.586544275283813477e+01,5.913678169250487393e+00,-9.476249694824220526e+00,-1.699883192777633389e-01,-6.240844726562500000e+00,-7.934570312500000000e-01,3.181457519531250000e+00
5.587845253944396973e+01,5.442020416259766513e+00,-9.476249694824220526e+00,-4.644751250743865967e-01,-6.240844726562500000e+00,-7.934570312500000000e-01,3.181457519531250000e+00
5.588981199264526367e+01,5.260061264038085938e+00,-8.884881973266601562e+00,-4.644751250743865967e-01,-6.240844726562500000e+00,-1.060485839843750000e+00,5.584716796875000000e+00
5.590750193595886230e+01,4.529829502105712891e+00,-8.841786384582519531e+00,-6.560112833976745605e-01,-1.792907714843750000e+00,-1.060485839843750000e+00,2.235412597656250000e+00
5.591828966140747070e+01,3.835510969161987305e+00,-8.841786384582519531e+00,3.327940404415130615e-01,-1.792907714843750000e+00,-1.785278320312500000e+00,1.617431640625000000e+00
5.593269395828247070e+01,4.529829502105712891e+00,-8.841786384582519531e+00,9.816227108240127563e-02,-1.617431640625000000e+00,-1.785278320312500000e+00,-6.103515625000000000e-01
5.594940876960754395e+01,4.493916511535644531e+00,-9.109937667846679688e+00,9.816227108240127563e-02,-1.617431640625000000e+00,-2.578735351562500000e+00,-6.103515625000000000e-01
5.596002459526062012e+01,5.085284233093261719e+00,-9.119514465332033026e+00,9.816227108240127563e-02,-1.617431640625000000e+00,8.239746093750000000e-01,-1.510620117187500000e+00
5.597416949272155762e+01,4.493916511535644531e+00,-9.119514465332033026e+00,2.418143749237060547e-01,-5.279541015625000000e+00,8.239746093750000000e-01,-1.121520996093750000e+00
5.598649883270263672e+01,5.384559631347656250e+00,-9.119514465332033026e+00,4.548983275890349787e-01,-5.279541015625000000e+00,8.239746093750000000e-01,-1.121520996093750000e+00
5.600140070915222168e+01,4.752490520477294922e+00,-9.229647636413574219e+00,4.548983275890349787e-01,-3.967285156250000000e+00,-5.340576171875000000e-01,2.555847167968750000e+00
5.601313257217407227e+01,4.752490520477294922e+00,-9.229647636413574219e+00,4.548983275890349787e-01,-3.395080566406250000e+00,-1.129150390625000000e+00,2.838134765625000000e+00
5.602779984474182129e+01,4.604049682617188388e+00,-9.057265281677246094e+00,-6.464344263076782227e-02,-3.395080566406250000e+00,-5.340576171875000000e-01,2.555847167968750000e+00
5.604013633728027344e+01,4.577713489532471591e+00,-9.057265281677246094e+00,4.357447028160095215e-01,-3.395080566406250000e+00,-1.174926757812500000e+00,2.838134765625000000e+00
5.605516672134399414e+01,4.577713489532471591e+00,-9.114726066589355469e+00,-6.464344263076782227e-02,-3.234863281250000000e+00,1.777648925781250000e+00,-3.784179687500000000e+00
5.607085037231445312e+01,4.795586109161376953e+00,-9.114726066589355469e+00,-7.254431247711181641e-01,-5.035400390625000000e-01,-2.876281738281250000e+00,4.585266113281250000e+00
5.608186817169189453e+01,4.932055473327636719e+00,-9.186552047729492188e+00,-7.254431247711181641e-01,-3.234863281250000000e+00,2.784729003906250000e+00,-6.713867187500000000e+00
5.609753870964050293e+01,4.967968463897705078e+00,-8.875305175781250000e+00,1.173158809542655945e-01,-4.463195800781250000e+00,-6.790161132812500000e-01,1.579284667968750000e+00
5.610965824127197266e+01,5.097255229949951172e+00,-9.186552047729492188e+00,4.716577231884002130e-01,-5.081176757812500000e+00,1.235961914062500000e+00,1.220703125000000000e-01
5.612418437004089355e+01,5.195417404174804688e+00,-8.458714485168457031e+00,1.173158809542655945e-01,-4.463195800781250000e+00,-6.790161132812500000e-01,1.579284667968750000e+00
5.613573575019836426e+01,5.195417404174804688e+00,-9.203310966491699219e+00,-2.394201606512069425e-01,-3.532409667968750000e+00,1.235961914062500000e+00,4.211425781250000000e+00
5.615091896057128906e+01,5.006275653839111328e+00,-8.458714485168457031e+00,-2.394201606512069425e-01,-3.532409667968750000e+00,2.563476562500000000e+00,4.211425781250000000e+00
5.616775226593017578e+01,4.240131378173828125e+00,-9.203310966491699219e+00,1.197100803256034851e-02,-1.907348632812500000e+00,2.563476562500000000e+00,4.257202148437500000e+00
5.617912220954895020e+01,4.240131378173828125e+00,-8.595184326171875000e+00,1.197100803256034851e-02,-1.907348632812500000e+00,-1.510620117187500000e+00,1.914978027343750000e+00
5.619332337379455566e+01,4.352658748626708984e+00,-8.595184326171875000e+00,1.568202137947082297e+00,-1.907348632812500000e+00,-1.510620117187500000e+00,-1.869201660156250000e+00
5.620499825477600098e+01,4.771644115447998047e+00,-8.595184326171875000e+00,-3.519476354122161865e-01,-9.994506835937500000e-01,-1.319885253906250000e+00,-3.417968750000000000e+00
5.622006487846374512e+01,5.870582580566406250e+00,-8.456319808959960938e+00,-3.519476354122161865e-01,-8.712768554687500000e+00,-1.319885253906250000e+00,-3.417968750000000000e+00
5.623539423942565918e+01,5.870582580566406250e+00,-8.748413085937500000e+00,-3.519476354122161865e-01,-5.493164062500000000e-01,1.701354980468750000e+00,2.670288085937500000e+00
5.624719238281250000e+01,5.137956619262695312e+00,-8.748413085937500000e+00,-1.589749932289123535e+00,-1.312255859375000000e+00,-1.380920410156250000e+00,4.226684570312500000e+00
5.626197195053100586e+01,4.656722068786621094e+00,-8.748413085937500000e+00,6.727706789970397949e-01,-1.312255859375000000e+00,-1.380920410156250000e+00,6.652832031250000000e+00
5.627456474304199219e+01,4.125209331512451172e+00,-9.145850181579589844e+00,-1.187524080276489258e+00,-1.312255859375000000e+00,-1.380920410156250000e+00,6.652832031250000000e+00
5.628900074958801270e+01,4.656722068786621094e+00,-8.602366447448730469e+00,3.471592366695404053e-01,-7.194519042968750000e+00,-6.317138671875000000e+00,1.686096191406250000e+00
5.630081582069396973e+01,4.982333660125731534e+00,-9.145850181579589844e+00,3.471592366695404053e-01,2.433776855468750000e+00,4.280090332031250000e+00,-2.975463867187500000e+00
5.631641530990600586e+01,5.032611846923828125e+00,-9.713275909423828125e+00,3.471592366695404053e-01,-1.380920410156250000e+00,-1.800537109375000000e+00,1.686096191406250000e+00
5.633351564407348633e+01,4.982333660125731534e+00,-9.713275909423828125e+00,1.237802267074584961e+00,-1.380920410156250000e+00,-6.256103515625000000e-01,-2.975463867187500000e+00
5.634443712234497070e+01,4.632780075073242188e+00,-9.713275909423828125e+00,1.343147158622741699e+00,-1.380920410156250000e+00,-6.256103515625000000e-01,-4.608154296875000000e+00
5.635854578018188477e+01,4.632780075073242188e+00,-9.267954826354980469e+00,1.343147158622741699e+00,-9.086608886718750000e+00,-6.256103515625000000e-01,-4.608154296875000000e+00
5.637248229980468750e+01,5.741295814514160156e+00,-9.267954826354980469e+00,1.343147158622741699e+00,-1.579284667968750000e+00,8.422851562500000000e+00,-1.190185546875000000e+00
5.638569974899291992e+01,5.741295814514160156e+00,-9.143456459045410156e+00,-1.759738206863403098e+00,-1.579284667968750000e+00,-6.790161132812500000e-01,5.622863769531250000e+00
5.639728975296020508e+01,4.058171749114990234e+00,-8.468291282653808594e+00,1.094150185585021973e+00,-1.579284667968750000e+00,-6.790161132812500000e-01,5.622863769531250000e+00
5.641446995735168457e+01,3.799597978591918945e+00,-8.468291282653808594e+00,1.094150185585021973e+00,3.822326660156250000e+00,-6.790161132812500000e-01,5.622863769531250000e+00
5.642520642280578613e+01,4.058171749114990234e+00,-9.947907447814939630e+00,1.094150185585021973e+00,3.311157226562500000e+00,-3.303527832031250000e+00,4.028320312500000000e+00
5.643934941291809082e+01,4.934449672698974609e+00,-9.947907447814939630e+00,1.359906554222106934e+00,3.311157226562500000e+00,2.426147460937500000e+00,-6.118774414062500000e+00
5.645346713066101074e+01,4.934449672698974609e+00,-8.317456245422361505e+00,2.123656988143920898e+00,3.311157226562500000e+00,5.798339843750000000e-01,2.288818359375000000e-02
5.646579670906066895e+01,6.612784862518311435e+00,-8.317456245422361505e+00,2.123656988143920898e+00,-1.185607910156250000e+01,5.798339843750000000e-01,2.288818359375000000e-02
5.648097991943359375e+01,4.522646903991699219e+00,-9.610325813293457031e+00,5.698199868202210583e-01,-7.461547851562500000e+00,-9.841918945312500000e-01,1.937866210937500000e+00
5.649543380737304688e+01,4.522646903991699219e+00,-9.610325813293457031e+00,-5.195417404174804688e-01,-7.461547851562500000e+00,-9.841918945312500000e-01,1.937866210937500000e+00
5.650879669189453125e+01,4.522646903991699219e+00,-9.449913978576660156e+00,5.698199868202210583e-01,-4.554748535156250000e+00,-9.841918945312500000e-01,1.937866210937500000e+00
5.651970863342285156e+01,4.754884719848632812e+00,-8.303091049194335938e+00,-5.195417404174804688e-01,-2.677917480468750000e+00,6.134033203125000000e+00,-9.765625000000000000e-01
5.653745770454406738e+01,4.754884719848632812e+00,-9.449913978576660156e+00,1.747767180204391479e-01,-4.554748535156250000e+00,-4.791259765625000000e+00,3.837585449218750000e+00
5.654833173751831055e+01,5.245696067810058594e+00,-9.550470352172851562e+00,1.412578970193862915e-01,-2.677917480468750000e+00,5.226135253906250000e+00,-6.240844726562500000e+00
5.656223869323730469e+01,3.995922565460205078e+00,-9.550470352172851562e+00,1.747767180204391479e-01,-9.597778320312500000e+00,-4.791259765625000000e+00,-2.441406250000000000e-01
5.657674670219421387e+01,5.267243862152099609e+00,-9.392453193664550781e+00,2.681505978107452393e-01,-4.631042480468750000e+00,2.861022949218750000e+00,-2.441406250000000000e-01
5.658851027488708496e+01,4.596867084503173828e+00,-9.392453193664550781e+00,2.681505978107452393e-01,-6.561279296875000000e+00,-1.274108886718750000e+00,7.629394531250000000e-02
5.660412430763244629e+01,6.818686485290527344e+00,-9.713275909423828125e+00,-2.202665507793426514e-01,-6.561279296875000000e+00,1.899719238281250000e+00,1.182556152343750000e+00
5.661595964431762695e+01,4.596867084503173828e+00,-9.713275909423828125e+00,-2.202665507793426514e-01,-6.561279296875000000e+00,1.899719238281250000e+00,1.182556152343750000e+00
5.663074493408203125e+01,3.926490783691406250e+00,-9.358934402465820312e+00,2.801215946674346924e-01,-6.202697753906250000e+00,1.899719238281250000e+00,6.278991699218750000e+00
5.664633941650390625e+01,3.464409828186035156e+00,-8.973467826843261719e+00,2.801215946674346924e-01,-2.380371093750000000e+00,-1.716613769531250000e+00,1.678466796875000000e-01
5.665873265266418457e+01,3.926490783691406250e+00,-9.358934402465820312e+00,-7.661445438861846924e-02,-6.202697753906250000e+00,-2.494812011718750000e+00,-6.477355957031250000e+00
5.667305946350097656e+01,5.114014625549316406e+00,-8.973467826843261719e+00,-5.267243385314941406e-01,-2.418518066406250000e+00,-1.716613769531250000e+00,-6.477355957031250000e+00
5.668521118164062500e+01,5.949591159820557529e+00,-8.686163902282714844e+00,-5.267243385314941406e-01,-2.418518066406250000e+00,2.120971679687500000e+00,-3.738403320312500000e+00
5.669967055320739746e+01,5.949591159820557529e+00,-8.449137687683105469e+00,1.115697979927062988e+00,-2.418518066406250000e+00,2.120971679687500000e+00,1.449584960937500000e+00
5.671182799339294434e+01,4.398148536682128906e+00,-8.449137687683105469e+00,1.115697979927062988e+00,-1.724243164062500000e+00,1.678466796875000000e+00,4.196166992187500000e+00
5.672660589218139648e+01,4.082113742828368252e+00,-9.380481719970703125e+00,-7.398083209991455078e-01,-4.631042480468750000e+00,-6.256103515625000000e-01,4.196166992187500000e+00
5.674201369285583496e+01,4.398148536682128906e+00,-9.380481719970703125e+00,-7.398083209991455078e-01,-1.220703125000000000e-01,-7.553100585937500000e-01,-4.959106445312500000e-01
5.675456547737121582e+01,4.728548049926757812e+00,-8.884881973266601562e+00,-4.165910780429840088e-01,-1.304626464843750000e+00,-2.593994140625000000e+00,-2.891540527343750000e+00
5.676917743682861328e+01,4.963180065155028409e+00,-8.884881973266601562e+00,-4.165910780429840088e-01,-1.304626464843750000e+00,-8.316040039062500000e-01,-2.891540527343750000e+00
5.678116083145141602e+01,5.240907669067382812e+00,-9.203310966491699219e+00,4.309562966227531433e-02,-7.881164550781250000e+00,-8.316040039062500000e-01,2.792358398437500000e+00
5.679568243026733398e+01,5.240907669067382812e+00,-9.203310966491699219e+00,4.309562966227531433e-02,-7.881164550781250000e+00,1.770019531250000000e+00,2.792358398437500000e+00
5.680865669250488281e+01,4.062960147857666016e+00,-8.923189163208007812e+00,4.309562966227531433e-02,-1.434326171875000000e+00,1.770019531250000000e+00,2.792358398437500000e+00
5.682267832756042480e+01,4.062960147857666016e+00,-8.858546257019042969e+00,-4.788403213024139404e-02,-1.434326171875000000e+00,-1.518249511718750000e+00,2.578735351562500000e+00
5.683833885192871094e+01,4.627991676330566406e+00,-8.858546257019042969e+00,-1.412578970193862915e-01,-2.937316894531250000e+00,-1.518249511718750000e+00,-2.342224121093750000e+00
5.684972572326660156e+01,4.819528102874755859e+00,-9.203310966491699219e+00,-1.412578970193862915e-01,-2.937316894531250000e+00,-7.781982421875000000e-01,-2.342224121093750000e+00
5.686507344245910645e+01,5.008669853210449219e+00,-9.203310966491699219e+00,-1.077390760183334351e-01,-2.937316894531250000e+00,-7.781982421875000000e-01,-6.179809570312500000e-01
5.687727832794189453e+01,5.008669853210449219e+00,-8.906430244445800781e+00,-6.224924325942992470e-02,-5.126953125000000000e+00,-7.781982421875000000e-01,-6.179809570312500000e-01
5.689234781265258789e+01,4.898536682128906250e+00,-8.906430244445800781e+00,-6.224924325942992470e-02,-5.126953125000000000e+00,-9.002685546875000000e-01,-1.831054687500000000e-01
5.690427374839782715e+01,4.898536682128906250e+00,-9.215282440185546875e+00,-1.101332753896713257e-01,-8.773803710937500000e-01,-3.128051757812500000e-01,2.365112304687500000e-01
5.691953253746032715e+01,4.898536682128906250e+00,-9.215282440185546875e+00,-1.101332753896713257e-01,-8.773803710937500000e-01,-9.460449218750000000e-01,5.722045898437500000e-01
5.693422913551330566e+01,4.807557106018066406e+00,-8.865728378295898438e+00,3.495534360408782959e-01,-3.814697265625000000e+00,-3.128051757812500000e-01,2.365112304687500000e-01
5.694650077819824219e+01,4.807557106018066406e+00,-8.865728378295898438e+00,3.495534360408782959e-01,-4.821777343750000000e+00,-9.460449218750000000e-01,5.722045898437500000e-01
5.696427011489868164e+01,4.857835292816162109e+00,-8.887276649475097656e+00,3.208230137825012207e-01,-3.814697265625000000e+00,-1.113891601562500000e+00,-3.433227539062500000e-01
5.697655820846557617e+01,4.893748283386231357e+00,-9.006986618041992188e+00,-3.998316824436187744e-01,-2.349853515625000000e+00,-1.113891601562500000e+00,2.853393554687500000e+00
5.698840737342834473e+01,4.893748283386231357e+00,-8.887276649475097656e+00,-2.418143749237060547e-01,-2.349853515625000000e+00,-1.113891601562500000e+00,2.662658691406250000e+00
5.700550842285156250e+01,4.750096321105957031e+00,-9.006986618041992188e+00,-2.418143749237060547e-01,-3.318786621093750000e+00,2.517700195312500000e-01,2.662658691406250000e+00
5.701666045188903809e+01,4.383783340454102451e+00,-9.006986618041992188e+00,-2.418143749237060547e-01,-3.318786621093750000e+00,-2.258300781250000000e+00,1.403808593750000000e+00
5.703062844276428223e+01,4.383783340454102451e+00,-9.303867340087890625e+00,-4.189852774143218994e-01,-3.318786621093750000e+00,-2.975463867187500000e-01,-4.501342773437500000e-01
5.704448008537292480e+01,5.099649429321289062e+00,-9.303867340087890625e+00,-4.189852774143218994e-01,-3.761291503906250000e+00,-6.713867187500000000e-01,-1.174926757812500000e+00
5.705659937858581543e+01,5.099649429321289062e+00,-9.287108421325683594e+00,3.734954595565795898e-01,-3.761291503906250000e+00,-2.975463867187500000e-01,-1.174926757812500000e+00
5.707206845283508301e+01,5.056553840637207031e+00,-9.133879661560060370e+00,4.572925269603729248e-01,-3.761291503906250000e+00,4.577636718750000000e-02,2.357482910156250000e+00
5.708645462989807129e+01,4.991910457611083984e+00,-9.200917243957519531e+00,3.734954595565795898e-01,-2.983093261718750000e+00,9.536743164062500000e-01,2.357482910156250000e+00
5.709897470474243164e+01,4.537012100219726562e+00,-9.133879661560060370e+00,1.340752989053726196e-01,-6.591796875000000000e+00,4.577636718750000000e-02,2.357482910156250000e+00
5.711148715019226074e+01,4.486733913421630859e+00,-8.451531410217285156e+00,1.340752989053726196e-01,-2.983093261718750000e+00,2.593994140625000000e-01,-1.045227050781250000e+00
5.712840008735656738e+01,4.537012100219726562e+00,-8.451531410217285156e+00,1.340752989053726196e-01,-2.082824707031250000e+00,2.593994140625000000e-01,2.113342285156250000e+00
5.713925600051879883e+01,4.690240859985351562e+00,-9.208099365234376776e+00,-4.094084799289703924e-01,-2.082824707031250000e+00,2.593994140625000000e-01,-1.106262207031250000e+00
5.715370130538940430e+01,4.690240859985351562e+00,-9.208099365234376776e+00,-4.094084799289703924e-01,-4.386901855468750000e+00,1.396179199218750000e+00,-1.106262207031250000e+00
5.717049932479858398e+01,4.721365451812744141e+00,-9.023746490478515625e+00,-6.703764945268630981e-02,-4.386901855468750000e+00,-1.373291015625000000e+00,-1.106262207031250000e+00
5.718132638931274414e+01,4.721365451812744141e+00,-9.023746490478515625e+00,-6.703764945268630981e-02,-2.906799316406250000e+00,1.396179199218750000e+00,-8.392333984375000000e-01
5.719563627243041992e+01,5.248090267181396484e+00,-8.741230010986326349e+00,-1.244984865188598494e-01,-2.906799316406250000e+00,1.998901367187500000e+00,-7.019042968750000000e-01
5.720757150650024414e+01,5.248090267181396484e+00,-8.604761123657228339e+00,-1.244984865188598494e-01,-5.172729492187500000e+00,1.998901367187500000e+00,-3.051757812500000000e-01
5.722212219238281250e+01,4.848258495330810547e+00,-8.604761123657228339e+00,-1.244984865188598494e-01,-5.172729492187500000e+00,3.128051757812500000e-01,3.173828125000000000e+00
5.723667335510253906e+01,4.390965938568115234e+00,-8.990227699279785156e+00,-1.225831270217895508e+00,-4.531860351562500000e+00,-1.945495605468750000e+00,4.158020019531250000e+00
5.724942207336425781e+01,4.390965938568115234e+00,-8.990227699279785156e+00,-1.225831270217895508e+00,-4.531860351562500000e+00,3.128051757812500000e-01,3.173828125000000000e+00
5.726375579833984375e+01,4.247313976287841797e+00,-8.822632789611816406e+00,-7.015010714530944824e-01,-4.531860351562500000e+00,-1.037597656250000000e+00,-1.701354980468750000e+00
5.727593278884887695e+01,4.527435302734375000e+00,-8.822632789611816406e+00,-7.015010714530944824e-01,-2.029418945312500000e+00,-1.037597656250000000e+00,-1.701354980468750000e+00
5.729079246520996094e+01,4.738124847412108487e+00,-8.822632789611816406e+00,-7.015010714530944824e-01,-2.029418945312500000e+00,-1.037597656250000000e+00,-1.701354980468750000e+00
5.730269861221313477e+01,4.740519523620605469e+00,-8.999804496765136719e+00,7.110778689384459339e-01,-4.341125488281250000e+00,-3.173828125000000000e+00,6.866455078125000000e-01
5.731869530677795410e+01,4.740519523620605469e+00,-8.999804496765136719e+00,7.110778689384459339e-01,-4.341125488281250000e+00,1.708984375000000000e+00,4.425048828125000000e-01
5.733078718185424805e+01,4.888959884643554688e+00,-8.999804496765136719e+00,-2.154781520366668701e-01,-3.990173339843750000e+00,-9.155273437500000000e-02,6.866455078125000000e-01
5.734488463401794434e+01,4.888959884643554688e+00,-8.602366447448730469e+00,-2.154781520366668701e-01,-3.990173339843750000e+00,-9.155273437500000000e-02,1.686096191406250000e+00
5.736027789115905762e+01,4.881777286529541016e+00,-8.602366447448730469e+00,-2.154781520366668701e-01,-3.990173339843750000e+00,-9.155273437500000000e-02,1.686096191406250000e+00
5.737204170227050781e+01,4.616020679473876953e+00,-9.064447402954101562e+00,-4.525041282176970880e-01,-5.874633789062500000e+00,-1.251220703125000000e+00,4.554748535156250000e+00
5.738723635673522949e+01,4.517858505249023438e+00,-9.064447402954101562e+00,-4.525041282176970880e-01,-2.037048339843750000e+00,3.776550292968750000e+00,-1.831054687500000000e-01
5.739904260635375977e+01,4.139574527740479404e+00,-9.064447402954101562e+00,-4.525041282176970880e-01,-5.874633789062500000e+00,-3.173828125000000000e+00,5.416870117187500000e-01
5.741442871093750000e+01,4.139574527740479404e+00,-9.141061782836914062e+00,-4.836287498474121094e-01,-5.645751953125000000e+00,-2.021789550781250000e+00,-1.083374023437500000e+00
5.742900395393371582e+01,4.522646903991699219e+00,-9.227252960205078125e+00,-4.836287498474121094e-01,-5.645751953125000000e+00,-2.021789550781250000e+00,-1.083374023437500000e+00
5.744115948677062988e+01,5.537788391113281250e+00,-9.227252960205078125e+00,-1.022324085235595703e+00,-4.234313964843750000e+00,-2.021789550781250000e+00,-1.083374023437500000e+00
5.745642209053039551e+01,4.668693065643311435e+00,-9.272743225097656250e+00,1.316810846328735629e-01,-4.234313964843750000e+00,1.235961914062500000e+00,-7.247924804687500000e-01
5.746832227706909180e+01,4.922478675842285156e+00,-9.334992408752439630e+00,-2.705447971820831299e-01,-4.234313964843750000e+00,6.408691406250000000e-01,7.400512695312500000e-01
5.748292827606201172e+01,4.695029258728027344e+00,-9.334992408752439630e+00,-2.466027736663818637e-01,-3.334045410156250000e+00,6.408691406250000000e-01,7.400512695312500000e-01
5.749473142623901367e+01,4.922478675842285156e+00,-8.944737434387207031e+00,-2.466027736663818637e-01,-3.334045410156250000e+00,-1.342773437500000000e+00,7.400512695312500000e-01
5.751038646697998047e+01,4.695029258728027344e+00,-8.944737434387207031e+00,-2.466027736663818637e-01,-3.334045410156250000e+00,-1.342773437500000000e+00,8.163452148437500000e-01
5.752512812614440918e+01,5.011064052581787109e+00,-8.944737434387207031e+00,4.788403399288654327e-03,-5.805969238281250000e+00,-1.342773437500000000e+00,2.578735351562500000e+00
5.753727459907531738e+01,4.654327869415283203e+00,-8.683769226074218750e+00,4.788403399288654327e-03,-1.716613769531250000e+00,3.738403320312500000e-01,2.578735351562500000e+00
5.755141854286193848e+01,4.465186119079589844e+00,-8.683769226074218750e+00,4.788403399288654327e-03,-5.805969238281250000e+00,-3.761291503906250000e+00,2.075195312500000000e+00
5.756367444992065430e+01,4.465186119079589844e+00,-9.251194953918457031e+00,-1.388636976480484009e-01,-6.668090820312500000e+00,3.204345703125000000e-01,-4.760742187500000000e+00
5.757889676094055176e+01,5.137956619262695312e+00,-9.251194953918457031e+00,-4.118026793003082275e-01,-6.668090820312500000e+00,-9.155273437500000000e-02,1.892089843750000000e+00
5.759355783462524414e+01,5.137956619262695312e+00,-8.700529098510742188e+00,-1.388636976480484009e-01,-7.186889648437500000e+00,-9.155273437500000000e-02,1.892089843750000000e+00
5.760575747489929199e+01,5.137956619262695312e+00,-8.700529098510742188e+00,-5.985504016280173561e-02,-5.607604980468750000e+00,-9.155273437500000000e-02,2.304077148437500000e+00
5.762144780158996582e+01,4.967968463897705078e+00,-9.236829757690429688e+00,-5.985504016280173561e-02,-5.607604980468750000e+00,4.882812500000000000e-01,2.304077148437500000e+00
5.763540577888488770e+01,4.970362663269042969e+00,-9.236829757690429688e+00,1.065419793128967285e+00,-5.073547363281250000e+00,4.882812500000000000e-01,2.304077148437500000e+00
5.764780330657958984e+01,4.498704910278320312e+00,-8.564059257507324219e+00,5.219359397888183594e-01,9.078979492187500000e-01,4.882812500000000000e-01,-2.342224121093750000e+00
5.765956377983093262e+01,4.970362663269042969e+00,-8.564059257507324219e+00,5.219359397888183594e-01,9.078979492187500000e-01,-2.861022949218750000e+00,3.311157226562500000e+00
5.767743444442749023e+01,5.159504413604736328e+00,-8.884881973266601562e+00,-2.801215946674346924e-01,-4.875183105468750000e+00,2.052307128906250000e+00,-4.882812500000000000e+00
5.769011878967285156e+01,5.159504413604736328e+00,-8.884881973266601562e+00,-5.985504388809204102e-01,-4.875183105468750000e+00,-1.274108886718750000e+00,4.096984863281250000e+00
5.770229434967041016e+01,5.276820659637451172e+00,-8.597578048706054688e+00,-5.985504388809204102e-01,-2.937316894531250000e+00,-1.274108886718750000e+00,3.570556640625000000e+00
5.771943783760070801e+01,4.347870349884033203e+00,-8.597578048706054688e+00,1.412578970193862915e-01,-2.937316894531250000e+00,-1.274108886718750000e+00,3.570556640625000000e+00
5.773066377639770508e+01,5.276820659637451172e+00,-9.033323287963867188e+00,1.412578970193862915e-01,-2.937316894531250000e+00,-1.174926757812500000e+00,3.372192382812500000e+00
5.774387454986572266e+01,4.558559894561768466e+00,-9.033323287963867188e+00,-4.788403213024138849e-01,-2.029418945312500000e+00,1.235961914062500000e+00,-1.747131347656250000e+00
5.775837802886962891e+01,4.876988887786865234e+00,-9.021351814270019531e+00,-4.788403213024138849e-01,-6.256103515625000000e-01,-1.174926757812500000e+00,2.479553222656250000e+00
5.777144980430603027e+01,4.666298866271972656e+00,-9.004592895507812500e+00,5.698199868202210583e-01,-6.256103515625000000e-01,1.144409179687500000e-01,-1.586914062500000000e+00
5.778577923774719238e+01,4.876988887786865234e+00,-9.004592895507812500e+00,5.698199868202210583e-01,-6.050109863281250000e+00,-1.251220703125000000e+00,2.479553222656250000e+00
5.780039405822753906e+01,4.666298866271972656e+00,-9.217676162719726562e+00,1.699883192777633389e-01,-6.050109863281250000e+00,1.144409179687500000e-01,-5.416870117187500000e-01
5.781250476837158203e+01,4.635174274444580078e+00,-9.217676162719726562e+00,1.699883192777633389e-01,-3.479003906250000000e+00,-3.738403320312500000e-01,1.884460449218750000e+00
5.782566094398498535e+01,4.548983097076416016e+00,-9.217676162719726562e+00,3.208230137825012207e-01,-3.479003906250000000e+00,-3.738403320312500000e-01,-5.340576171875000000e-01
5.784007167816162109e+01,4.548983097076416016e+00,-9.248801231384275567e+00,3.208230137825012207e-01,-3.479003906250000000e+00,-3.738403320312500000e-01,-5.340576171875000000e-01
5.785472774505615234e+01,4.939238071441650391e+00,-9.248801231384275567e+00,7.182605098932981491e-03,-2.929687500000000000e+00,7.629394531250000000e-03,-9.765625000000000000e-01
5.786701750755310059e+01,5.374982833862304688e+00,-9.097966194152832031e+00,7.182605098932981491e-03,-1.655578613281250000e+00,6.332397460937500000e-01,-9.765625000000000000e-01
5.788264966011047363e+01,4.939238071441650391e+00,-9.097966194152832031e+00,2.274491637945174893e-01,-1.655578613281250000e+00,6.332397460937500000e-01,9.994506835937500000e-01
5.789403986930847168e+01,5.011064052581787109e+00,-9.325415611267089844e+00,2.274491637945174893e-01,-2.540588378906250000e+00,-1.464843750000000000e+00,1.968383789062500000e+00
5.790948629379272461e+01,4.510675907135009766e+00,-9.325415611267089844e+00,-1.005564704537391663e-01,-2.540588378906250000e+00,-1.464843750000000000e+00,9.994506835937500000e-01
5.792180061340332031e+01,5.011064052581787109e+00,-8.870516777038574219e+00,-1.005564704537391663e-01,-2.540588378906250000e+00,-1.380920410156250000e+00,1.861572265625000000e+00
5.793629717826843262e+01,4.893748283386231357e+00,-8.870516777038574219e+00,-1.005564704537391663e-01,-5.538940429687500000e+00,2.227783203125000000e+00,-1.274108886718750000e+00
5.794839572906494141e+01,4.893748283386231357e+00,-9.004592895507812500e+00,-5.267243385314941406e-01,-5.538940429687500000e+00,-1.380920410156250000e+00,1.861572265625000000e+00
5.796283888816833496e+01,4.577713489532471591e+00,-9.004592895507812500e+00,-5.267243385314941406e-01,-2.906799316406250000e+00,-3.204345703125000000e-01,-1.274108886718750000e+00
5.797803258895874023e+01,4.577713489532471591e+00,-8.925583839416503906e+00,3.040636181831359863e-01,-2.281188964843750000e+00,-1.899719238281250000e+00,6.408691406250000000e-01
5.799059414863586426e+01,4.608838081359863281e+00,-8.901641845703125000e+00,3.040636181831359863e-01,-2.281188964843750000e+00,-3.204345703125000000e-01,-2.685546875000000000e+00
5.800542998313903809e+01,5.786785602569580078e+00,-8.791508674621582031e+00,-2.753331959247589111e-01,-2.281188964843750000e+00,-5.340576171875000000e-02,6.408691406250000000e-01
5.801771879196166992e+01,5.786785602569580078e+00,-8.901641845703125000e+00,-2.753331959247589111e-01,-3.547668457031250000e+00,1.296997070312500000e-01,4.081726074218750000e+00
5.803246045112609863e+01,4.996698856353759766e+00,-8.844181060791015625e+00,-1.867477297782897949e-01,-3.547668457031250000e+00,-5.340576171875000000e-02,4.394531250000000000e+00
5.804375767707824707e+01,4.347870349884033203e+00,-9.023746490478515625e+00,-1.197100803256034712e-01,-4.776000976562500000e+00,7.629394531250000000e-01,4.394531250000000000e+00
5.805948019027709961e+01,4.347870349884033203e+00,-9.109937667846679688e+00,-1.867477297782897949e-01,-4.776000976562500000e+00,-1.029968261718750000e+00,-1.243591308593750000e+00
5.807377386093139648e+01,4.355052947998046875e+00,-9.109937667846679688e+00,-2.082955390214920044e-01,-2.746582031250000000e+00,-1.312255859375000000e+00,-2.777099609375000000e+00
5.808566117286682129e+01,5.027823448181152344e+00,-8.990227699279785156e+00,-2.082955390214920044e-01,-2.746582031250000000e+00,-1.312255859375000000e+00,-2.777099609375000000e+00
5.810145020484924316e+01,5.504269599914550781e+00,-8.956707954406738281e+00,-2.082955390214920044e-01,-3.509521484375000000e+00,-3.814697265625000000e-01,0.000000000000000000e+00
5.811281824111938477e+01,5.504269599914550781e+00,-8.956707954406738281e+00,-3.208230137825012207e-01,-3.654479980468750000e+00,-3.814697265625000000e-01,3.318786621093750000e+00
5.812863254547119141e+01,4.766855716705322266e+00,-9.179368972778320312e+00,-3.208230137825012207e-01,-3.509521484375000000e+00,2.670288085937500000e-01,3.318786621093750000e+00
5.813981175422668457e+01,4.383783340454102451e+00,-9.179368972778320312e+00,-7.182605098932981491e-03,-3.303527832031250000e+00,-1.182556152343750000e+00,2.021789550781250000e+00
5.815480232238769531e+01,4.383783340454102451e+00,-9.179368972778320312e+00,-7.182605098932981491e-03,-3.303527832031250000e+00,-2.059936523437500000e-01,-2.517700195312500000e-01
5.817006230354309082e+01,4.558559894561768466e+00,-9.028534889221193183e+00,-3.830722719430923462e-02,-3.097534179687500000e+00,-9.460449218750000000e-01,-3.051757812500000000e-01
5.818181467056274414e+01,4.941632270812988281e+00,-9.028534889221193183e+00,-3.830722719430923462e-02,-3.715515136718750000e+00,-6.942749023437500000e-01,-9.994506835937500000e-01
5.819723367691040039e+01,4.989516258239746094e+00,-9.028534889221193183e+00,8.379705995321273804e-02,-3.715515136718750000e+00,-6.942749023437500000e-01,-3.051757812500000000e-01
5.820918011665344238e+01,4.989516258239746094e+00,-9.344569206237792969e+00,8.379705995321273804e-02,-3.730773925781250000e+00,-7.629394531250000000e-02,-3.814697265625000000e-01
5.822637391090393066e+01,5.061342239379882812e+00,-9.344569206237792969e+00,-1.723825186491012573e-01,-3.730773925781250000e+00,-7.629394531250000000e-02,1.785278320312500000e+00
5.823955464363098145e+01,4.979939460754394531e+00,-8.959102630615234375e+00,-1.723825186491012573e-01,-3.715515136718750000e+00,3.051757812500000000e-02,-6.866455078125000000e-02
5.825125861167907715e+01,4.881777286529541016e+00,-8.959102630615234375e+00,3.495534360408782959e-01,-3.715515136718750000e+00,-9.307861328125000000e-01,2.326965332031250000e+00
5.826843476295471191e+01,4.714182853698730469e+00,-9.011775016784667969e+00,3.495534360408782959e-01,-3.715515136718750000e+00,-5.416870117187500000e-01,-6.866455078125000000e-02
5.827958273887634277e+01,4.522646903991699219e+00,-9.011775016784667969e+00,-2.394201606512069425e-01,-2.090454101562500000e+00,-8.316040039062500000e-01,1.548767089843750000e+00
5.829331183433532715e+01,4.714182853698730469e+00,-8.829815864562988281e+00,-2.394201606512069425e-01,-2.090454101562500000e+00,-5.416870117187500000e-01,-3.051757812500000000e-01
5.830749940872192383e+01,4.805162906646728516e+00,-8.829815864562988281e+00,-3.112462162971496929e-02,-3.402709960937500000e+00,-1.602172851562500000e-01,-1.602172851562500000e-01
5.831959414482116699e+01,4.951209068298339844e+00,-9.126696586608886719e+00,-3.112462162971496929e-02,-4.394531250000000000e+00,-1.602172851562500000e-01,-1.602172851562500000e-01
5.833473443984985352e+01,4.939238071441650391e+00,-9.126696586608886719e+00,-3.112462162971496929e-02,-4.394531250000000000e+00,-1.602172851562500000e-01,1.983642578125000000e-01
5.834944534301757812e+01,5.070919036865233487e+00,-8.925583839416503906e+00,3.136404156684875488e-01,-2.731323242187500000e+00,-3.814697265625000000e-02,4.119873046875000000e-01
5.836174941062927246e+01,4.939238071441650391e+00,-8.925583839416503906e+00,3.136404156684875488e-01,-2.731323242187500000e+00,-3.814697265625000000e-02,9.918212890625000000e-01
5.837426257133483887e+01,4.893748283386231357e+00,-9.057265281677246094e+00,-2.968810200691223145e-01,-3.440856933593750000e+00,-3.814697265625000000e-02,1.098632812500000000e+00
5.839143753051757812e+01,4.788403511047363281e+00,-9.057265281677246094e+00,-2.968810200691223145e-01,-3.440856933593750000e+00,-1.144409179687500000e-01,1.113891601562500000e+00
5.840275979042053223e+01,4.771644115447998047e+00,-9.016563415527343750e+00,1.675941236317157398e-02,-3.440856933593750000e+00,-1.144409179687500000e-01,1.098632812500000000e+00
5.841643476486206055e+01,4.723759651184082031e+00,-8.923189163208007812e+00,1.675941236317157398e-02,-3.700256347656250000e+00,-1.373291015625000000e-01,-6.027221679687500000e-01
5.843339061737060547e+01,4.771644115447998047e+00,-8.923189163208007812e+00,-9.576806798577308655e-03,-3.700256347656250000e+00,-2.822875976562500000e-01,-6.027221679687500000e-01
5.844447684288024902e+01,5.035006046295166016e+00,-8.923189163208007812e+00,-9.576806798577308655e-03,-3.463745117187500000e+00,-2.822875976562500000e-01,7.553100585937500000e-01
5.845799279212951660e+01,5.035006046295166016e+00,-8.899247169494628906e+00,0.000000000000000000e+00,-3.463745117187500000e+00,-2.670288085937500000e-01,7.705688476562500000e-01
5.847267842292785645e+01,4.872200489044189453e+00,-8.899247169494628906e+00,0.000000000000000000e+00,-4.119873046875000000e+00,7.629394531250000000e-02,1.579284667968750000e+00
5.848461985588073730e+01,4.697423458099365234e+00,-8.959102630615234375e+00,-2.322375625371932983e-01,-4.119873046875000000e+00,-6.866455078125000000e-02,1.579284667968750000e+00
5.849649977684020996e+01,4.654327869415283203e+00,-8.959102630615234375e+00,-2.322375625371932983e-01,-3.044128417968750000e+00,-6.866455078125000000e-02,1.136779785156250000e+00
5.851199126243591309e+01,4.654327869415283203e+00,-8.813055992126464844e+00,-1.843535304069519043e-01,-3.044128417968750000e+00,-4.348754882812500000e-01,2.670288085937500000e-01
5.852434968948364258e+01,4.817133903503417969e+00,-8.813055992126464844e+00,-1.843535304069519043e-01,-3.524780273437500000e+00,-4.348754882812500000e-01,-3.051757812500000000e-02
5.853901433944702148e+01,4.900930881500244141e+00,-9.071630477905273438e+00,-2.274491637945174893e-01,-3.524780273437500000e+00,-9.918212890625000000e-01,2.670288085937500000e-01
5.855375599861145020e+01,5.018246650695800781e+00,-9.071630477905273438e+00,-2.274491637945174893e-01,-3.173828125000000000e+00,2.288818359375000000e-01,3.585815429687500000e-01
5.856601929664611816e+01,5.018246650695800781e+00,-8.875305175781250000e+00,7.182605098932981491e-03,-3.173828125000000000e+00,-4.577636718750000000e-01,1.075744628906250000e+00
5.858164668083190918e+01,4.812345504760742188e+00,-8.875305175781250000e+00,7.182605098932981491e-03,-4.333496093750000000e+00,5.340576171875000000e-02,1.174926757812500000e+00
5.859258580207824707e+01,4.738124847412108487e+00,-9.205705642700195312e+00,-2.011129409074783603e-01,-4.333496093750000000e+00,-4.577636718750000000e-01,1.388549804687500000e+00
5.860837173461914062e+01,4.738124847412108487e+00,-9.205705642700195312e+00,-2.801215946674346924e-01,-1.762390136718750000e+00,-3.356933593750000000e-01,1.174926757812500000e+00
5.862007880210876465e+01,4.774038314819335938e+00,-8.937554359436035156e+00,-2.011129409074783603e-01,-1.762390136718750000e+00,-5.035400390625000000e-01,7.629394531250000000e-03
5.863482999801635742e+01,4.838681697845458984e+00,-8.935160636901855469e+00,1.029506698250770569e-01,-5.287170410156250000e+00,-3.356933593750000000e-01,-4.119873046875000000e-01
5.865007281303405762e+01,4.879383087158203125e+00,-8.937554359436035156e+00,1.029506698250770569e-01,-5.287170410156250000e+00,3.814697265625000000e-02,-4.119873046875000000e-01
5.866158986091613770e+01,4.996698856353759766e+00,-8.935160636901855469e+00,-1.364694982767105103e-01,-3.326416015625000000e+00,3.814697265625000000e-02,1.136779785156250000e+00
5.867864084243774414e+01,4.879383087158203125e+00,-8.956707954406738281e+00,-1.364694982767105103e-01,-3.326416015625000000e+00,3.814697265625000000e-02,1.136779785156250000e+00
5.868972015380859375e+01,4.695029258728027344e+00,-8.956707954406738281e+00,-1.364694982767105103e-01,-4.638671875000000000e+00,-3.280639648437500000e-01,9.536743164062500000e-01
5.870415234565734863e+01,4.695029258728027344e+00,-9.033323287963867188e+00,4.788403213024139404e-02,-4.638671875000000000e+00,-3.280639648437500000e-01,-9.918212890625000000e-02
5.871873879432678223e+01,4.845864295959472656e+00,-9.033323287963867188e+00,4.788403213024139404e-02,-3.913879394531250000e+00,-3.280639648437500000e-01,-5.340576171875000000e-02
5.873096466064453125e+01,4.888959884643554688e+00,-9.033323287963867188e+00,4.788403213024139404e-02,-3.913879394531250000e+00,-3.967285156250000000e-01,-5.340576171875000000e-02
5.874619865417480469e+01,5.078101634979248047e+00,-8.844181060791015625e+00,2.777273952960968018e-01,-4.425048828125000000e+00,-1.907348632812500000e-01,-5.340576171875000000e-02
5.875815391540527344e+01,5.078101634979248047e+00,-8.901641845703125000e+00,3.351882472634315491e-02,-4.425048828125000000e+00,1.296997070312500000e-01,9.536743164062500000e-01
5.877260184288024902e+01,5.030217647552490234e+00,-8.901641845703125000e+00,3.351882472634315491e-02,-4.043579101562500000e+00,1.296997070312500000e-01,9.536743164062500000e-01
5.878466892242431641e+01,4.786009311676025391e+00,-8.985439300537109375e+00,3.351882472634315491e-02,-4.043579101562500000e+00,1.296997070312500000e-01,9.536743164062500000e-01
5.879989480972290039e+01,4.786009311676025391e+00,-8.985439300537109375e+00,-2.394201606512069702e-02,-4.043579101562500000e+00,-3.051757812500000000e-02,7.858276367187500000e-01
5.881454396247863770e+01,4.786009311676025391e+00,-9.057265281677246094e+00,-2.394201606512069702e-02,-3.524780273437500000e+00,-3.051757812500000000e-02,7.553100585937500000e-01
5.882663989067077637e+01,4.876988887786865234e+00,-8.944737434387207031e+00,-2.394201606512069702e-02,-3.524780273437500000e+00,-1.220703125000000000e-01,7.553100585937500000e-01
5.884189629554748535e+01,4.900930881500244141e+00,-8.992621421813964844e+00,-2.394201606512069702e-02,-3.524780273437500000e+00,-3.662109375000000000e-01,6.103515625000000000e-01
5.885637474060058594e+01,4.941632270812988281e+00,-8.904035568237304688e+00,-2.154781483113765717e-02,-2.815246582031250000e+00,-1.754760742187500000e-01,6.103515625000000000e-01
5.886948537826538086e+01,4.941632270812988281e+00,-8.911218643188476562e+00,-2.394201699644327164e-03,-2.815246582031250000e+00,-1.754760742187500000e-01,1.022338867187500000e+00
5.888155603408813477e+01,4.788403511047363281e+00,-8.911218643188476562e+00,1.149216815829277039e-01,-3.715515136718750000e+00,-1.754760742187500000e-01,1.174926757812500000e+00
5.889838767051696777e+01,4.745307922363281250e+00,-9.033323287963867188e+00,1.149216815829277039e-01,-3.715515136718750000e+00,-1.296997070312500000e-01,1.174926757812500000e+00
5.891068983078002930e+01,4.714182853698730469e+00,-9.033323287963867188e+00,-1.029506698250770569e-01,-3.364562988281250000e+00,-1.678466796875000000e-01,2.059936523437500000e-01
5.892271327972412109e+01,4.714182853698730469e+00,-9.033323287963867188e+00,-1.029506698250770569e-01,-3.280639648437500000e+00,-1.678466796875000000e-01,1.831054687500000000e-01
5.894042444229125977e+01,4.908113479614257812e+00,-8.956707954406738281e+00,3.591302409768105247e-02,-3.364562988281250000e+00,-1.678466796875000000e-01,1.831054687500000000e-01
5.895126748085021973e+01,4.922478675842285156e+00,-9.033323287963867188e+00,3.591302409768105247e-02,-3.593444824218750000e+00,-2.822875976562500000e-01,2.670288085937500000e-01
5.896554613113403320e+01,4.922478675842285156e+00,-8.956707954406738281e+00,-6.224924325942992470e-02,-3.593444824218750000e+00,-3.356933593750000000e-01,9.155273437500000000e-01
5.897958588600158691e+01,4.912901878356933594e+00,-8.956707954406738281e+00,-9.097966551780699296e-02,-3.227233886718750000e+00,-3.356933593750000000e-01,9.841918945312500000e-01
5.899186110496520996e+01,4.778826713562011719e+00,-8.942342758178710938e+00,-6.224924325942992470e-02,-3.227233886718750000e+00,-3.128051757812500000e-01,9.841918945312500000e-01
5.900732564926147461e+01,4.759673118591308594e+00,-8.918400764465332031e+00,4.070142656564712524e-02,-3.540039062500000000e+00,-1.068115234375000000e-01,8.010864257812500000e-01
5.902143788337707520e+01,4.759673118591308594e+00,-8.942342758178710938e+00,4.070142656564712524e-02,-3.540039062500000000e+00,-3.128051757812500000e-01,7.247924804687500000e-01
5.903449749946594238e+01,4.759673118591308594e+00,-8.978256225585937500e+00,4.070142656564712524e-02,-3.540039062500000000e+00,-1.144409179687500000e-01,1.068115234375000000e-01
5.904645657539367676e+01,4.848258495330810547e+00,-8.978256225585937500e+00,7.900865375995635986e-02,-3.387451171875000000e+00,-1.144409179687500000e-01,6.103515625000000000e-02
5.906113505363464355e+01,4.991910457611083984e+00,-8.978256225585937500e+00,7.900865375995635986e-02,-3.707885742187500000e+00,-1.144409179687500000e-01,6.103515625000000000e-02
